time,state,accel,vel,alt,roll,s1,s2,s3,ax,ay,az,gx,gy,gz,baro,temp
0,0,0.0078125,0.0,2.0,0.0,0,0,0,0.000030517578,0.000030517578,0.0078125,7.34684e-40,0.0,0.0,2.0,24.0
0,0,0.0078125,0.0,2.0,0.0,0,0,0,0.000030517578,0.000030517578,0.0078125,0.0,0.0,0.0,2.0,24.0
0,0,0.000030517578,0.0,2.0,0.0,0,0,0,0.000030517578,0.000030517578,0.0078125,0.0,0.0,0.0,2.0,24.0
0,0,0.000030517578,0.0,2.0,0.0,0,0,0,0.000030517578,0.0078125,0.0078125,0.0,0.0,0.0,2.0,24.0
0,0,0.0078125,0.0,2.0,0.0,0,0,0,0.000030517578,0.0078125,0.0078125,0.0,0.0,0.0,2.0,24.0
0,0,0.0078125,0.0,2.0,0.0,0,0,90,0.000030517578,0.000030517578,0.00048828125,0.0,0.0,0.0,2.0,24.0
0,0,0.0078125,0.0,2.0,0.0,0,0,90,0.0,0.000030517578,0.000030517578,0.0,0.0,0.0,2.0,24.0
0,0,0.0078125,0.000030517578,2.0,0.0,0,0,90,0.000030517578,0.0078125,0.0078125,0.0,0.0,0.0,2.0,24.0
0,0,0.0078125,0.000030517578,2.0,0.0,0,0,90,0.000030517578,0.0078125,0.0078125,0.0,0.0,0.0,2.0,24.0
0,0,0.000030517578,0.000030517578,2.0,0.0,0,0,90,0.0,0.000030517578,0.0078125,0.0,7.34684e-40,0.0,2.0,24.0
0,0,0.000030517578,0.000030517578,2.0,0.0,0,0,90,0.0,0.000030517578,0.000030517578,0.0,0.0,0.0,2.0,24.0
0,0,0.0078125,0.000030517578,2.0,0.0,0,0,90,0.000030517578,0.0078125,0.0078125,0.0,0.0,0.0,2.0,24.0
0,0,0.0078125,0.000030517578,2.0,0.0,0,0,90,0.0,0.000030517578,0.0078125,0.0,0.0,0.0,2.0,24.0
0,0,0.0078125,0.000030517578,2.0,7.34684e-40,0,0,90,0.000030517578,0.000030517578,0.000030517578,7.34684e-40,0.0,0.0,2.0,24.0
0,0,0.0078125,0.000030517578,2.0,0.0,0,0,90,0.000030517578,0.000030517578,0.0078125,0.0,0.0,0.0,2.0,24.0
0,0,0.000030517578,0.000030517578,2.0,0.0,0,0,90,0.0,0.0078125,0.000030517578,0.0,0.0,0.0,2.0,24.0
0,0,0.000030517578,0.000030517578,2.0,0.0,0,0,90,0.0,0.0078125,0.0078125,0.0,0.0,0.0,2.0,24.0
0,0,0.0078125,0.000030517578,2.0,0.0,0,0,90,0.0,0.000030517578,0.000030517578,0.0,0.0,2.87e-42,2.0,24.0
0,0,0.000030517578,0.000030517578,2.0,0.0,0,0,90,0.0,0.0078125,0.0078125,0.0,0.0,0.0,2.0,24.0
0,0,0.0078125,0.000030517578,2.0,0.0,0,0,90,0.000030517578,0.000030517578,0.0078125,0.0,0.0,5.74e-42,2.0,24.0
0,0,0.000030517578,0.000030517578,2.0,0.0,0,0,90,0.000030517578,0.000030517578,0.0078125,0.0,0.0,0.0,2.0,24.0
0,0,0.0078125,0.000030517578,2.0,0.0,0,0,90,0.0,0.0078125,0.000030517578,0.0,0.0,0.0,2.0,24.0
0,0,0.0078125,0.000030517578,2.0,0.0,0,0,90,0.000030517578,0.000030517578,0.000030517578,0.0,0.0,0.0,2.0,24.0
0,0,0.000030517578,0.000030517578,2.0,0.0,0,0,90,0.0,0.0078125,0.0078125,0.0,0.0,7.34684e-40,2.0,24.0
0,0,0.000030517578,0.000030517578,2.0,0.0,0,0,90,0.000030517578,0.000030517578,0.0078125,0.0,0.0,2.511e-42,2.0,24.0
0,0,0.0078125,0.000030517578,2.0,0.0,0,0,90,0.000030517578,0.0078125,0.000030517578,0.0,0.0,0.0,2.0,24.0
0,0,0.0078125,0.000030517578,2.0,0.0,0,0,90,0.0,0.000030517578,0.000030517578,0.0,0.0,7.34684e-40,2.0,24.0
0,0,0.0078125,0.000030517578,2.0,0.0,0,0,90,0.0,0.000030517578,0.0078125,0.0,0.0,0.0,2.0,24.0
0,0,0.0078125,0.000030517578,2.0,0.0,0,0,90,0.000030517578,0.000030517578,0.0078125,0.0,0.0,0.0,2.0,24.0
0,0,0.0078125,0.000030517578,2.0,7.34684e-40,0,0,90,0.000030517578,0.000030517578,0.0078125,7.34684e-40,0.0,7.34684e-40,2.0,24.0
0,0,0.000030517578,0.000030517578,2.0,0.0,0,0,90,0.0,0.000030517578,0.0078125,0.0,0.0,0.0,2.0,24.0
0,0,0.0078125,0.000030517578,2.0,0.0,0,0,90,0.000030517578,0.000030517578,0.0078125,0.0,0.0,1.435e-42,2.0,24.0
0,0,0.0078125,0.000030517578,2.0,0.0,0,0,90,0.000030517578,0.000030517578,0.0078125,0.0,0.0,0.0,2.0,24.0
0,0,0.000030517578,0.000030517578,2.0,0.0,0,0,90,0.0,0.000030517578,0.0078125,0.0,0.0,0.0,2.0,24.0
0,0,0.000030517578,0.000030517578,2.0,0.0,0,0,90,0.0,0.000030517578,0.0078125,0.0,0.0,0.0,2.0,24.0
0,0,0.0,0.000030517578,2.0,0.0,0,0,90,0.000030517578,0.000030517578,0.0078125,0.0,0.0,0.0,2.0,24.0
0,0,0.0078125,0.000030517578,2.0,0.0,0,0,90,0.0,0.000030517578,0.0078125,0.0,0.0,0.0,2.0,24.0
0,0,0.0078125,4.656613e-10,2.0,0.0,0,0,90,0.000030517578,0.000030517578,0.0078125,0.0,0.0,0.0,2.0,24.0
0,0,0.000030517578,0.000030517578,2.0,0.0,0,0,90,0.000030517578,0.0078125,0.0078125,0.0,0.0,1.469368e-39,2.0,24.0
0,0,0.0078125,0.000030517578,2.0,0.0,0,0,90,0.000030517578,0.0078125,0.0078125,0.0,0.0,0.0,2.0,24.0
0,0,0.000030517578,0.000030517578,2.0,0.0,0,0,90,0.0,0.000030517578,0.0078125,0.0,0.0,0.0,2.0,24.0
0,0,0.000030517578,0.000030517578,2.0,0.0,0,0,90,0.0,0.000030517578,0.0078125,0.0,0.0,0.0,2.0,24.0
0,0,0.0078125,0.000030517578,2.0,0.0,0,0,90,0.000030517578,0.000030517578,0.0078125,0.0,0.0,0.0,2.0,24.0
0,0,0.00012207031,0.000030517578,2.0,0.0,0,0,90,0.0,0.000030517578,0.0078125,0.0,0.0,0.0,2.0,24.0
0,0,0.0,0.000030517578,2.0,0.0,0,0,90,0.0,0.000030517578,0.0078125,0.0,0.0,0.0,2.0,24.0
0,0,0.0078125,0.000030517578,2.0,-0.0,0,0,90,0.000030517578,0.0078125,0.0078125,-0.0,0.0,0.0,2.0,24.0
0,0,0.0078125,0.000030517578,2.0,0.0,0,0,90,0.000030517578,0.0078125,0.0078125,0.0,0.0,0.0,2.0,24.0
0,0,0.0078125,0.000030517578,2.0,0.0,0,0,90,0.000030517578,0.0078125,0.0078125,0.0,0.0,0.0,2.0,24.0
0,0,0.0078125,0.000030517578,2.0,0.0,0,0,90,0.000030517578,0.000030517578,0.0078125,0.0,0.0,0.0,2.0,24.0
0,0,0.0078125,0.000030517578,2.0,0.0,0,0,90,0.000030517578,0.0078125,0.125,0.0,0.0,0.0,2.0,24.0
0,0,0.0078125,0.000030517578,2.0,0.0,0,0,90,0.000030517578,0.0078125,0.125,0.0,0.0,0.0,2.0,24.0
0,0,0.0078125,0.000030517578,2.0,0.0,0,0,90,0.000030517578,0.0078125,0.0078125,0.0,0.0,0.0,2.0,24.0
0,0,0.00012207031,0.000030517578,2.0,0.0,0,0,90,0.000030517578,0.0078125,0.0078125,0.0,0.0,0.0,2.0,24.0
0,0,0.0078125,0.000030517578,2.0,0.0,0,0,90,0.000030517578,0.000030517578,0.0078125,0.0,0.0,-0.0,2.0,24.0
0,0,0.0078125,0.000030517578,2.0,0.0,0,0,90,0.000030517578,0.0078125,0.0078125,0.0,0.0,0.0,2.0,24.0
0,0,0.0078125,0.000030517578,2.0,0.0,0,0,90,0.000030517578,0.0078125,0.0078125,0.0,0.0,8.97e-43,2.0,24.0
0,0,0.0078125,0.000030517578,2.0,0.0,0,0,90,0.0,0.0078125,0.125,0.0,0.0,5.38e-43,2.0,24.0
0,0,0.0078125,0.000030517578,2.0,0.0,0,0,90,0.000030517578,0.0078125,0.0078125,0.0,0.0,-0.0,2.0,24.0
0,0,0.0078125,0.000030517578,2.0,0.0,0,0,90,0.000030517578,0.0078125,0.0078125,0.0,0.0,0.0,2.0,24.0
0,0,0.0078125,0.000030517578,2.0,0.0,0,0,90,0.000030517578,0.0078125,0.125,0.0,0.0,0.0,2.0,24.0
0,0,0.0078125,0.000030517578,2.0,7.34684e-40,0,0,90,0.0,0.0078125,0.0078125,7.34684e-40,0.0,1.148e-41,2.0,24.0
0,0,0.00012207031,0.000030517578,2.0,0.0,0,0,90,0.000030517578,0.0078125,0.125,0.0,1.1754944e-38,0.0,2.0,24.0
0,0,0.0078125,0.000030517578,2.0,0.0,0,0,90,0.0,0.0078125,0.125,0.0,0.0,0.0,2.0,24.0
0,0,0.0078125,0.000030517578,2.0,0.0,0,0,90,0.0,0.0078125,0.125,0.0,0.0,0.0,2.0,24.0
0,0,0.0078125,0.000030517578,2.0,0.0,0,0,90,0.0,0.0078125,0.0078125,0.0,0.0,0.0,2.0,24.0
0,0,0.0078125,0.000030517578,2.0,0.0,0,0,90,0.000030517578,0.0078125,0.125,0.0,0.0,0.0,2.0,24.0
0,0,0.0078125,0.000030517578,2.0,0.0,0,0,90,0.000030517578,0.0078125,0.125,0.0,0.0,0.0,2.0,24.0
0,0,0.00012207031,0.000030517578,2.0,0.0,0,0,90,0.000030517578,0.0078125,0.125,0.0,0.0,2.87e-42,2.0,24.0
0,0,0.0078125,0.000030517578,2.0,0.0,0,0,90,0.0,0.0078125,0.125,0.0,0.0,0.0,2.0,24.0
0,0,0.0078125,0.000030517578,2.0,-0.0,0,0,90,0.000030517578,0.0078125,0.0078125,-0.0,0.0,9.1835e-41,2.0,24.0
0,0,0.0078125,0.000030517578,2.0,0.0,0,0,90,0.000030517578,0.0078125,0.125,0.0,0.0,2.2959e-41,2.0,24.0
0,0,0.0078125,0.000030517578,2.0,0.0,0,0,90,0.0,0.0078125,0.125,0.0,0.0,0.0,2.0,24.0
0,0,0.0078125,0.000030517578,2.0,0.0,0,0,90,0.0,0.0078125,0.125,0.0,0.0,0.0,2.0,24.0
0,0,0.0078125,0.000030517578,2.0,0.0,0,0,90,0.000030517578,0.0078125,0.125,0.0,0.0,0.0,2.0,24.0
0,0,0.0078125,0.000030517578,2.0,0.0,0,0,90,0.000030517578,0.0078125,0.0078125,0.0,0.0,1.075e-42,2.0,24.0
0,0,0.0078125,0.000030517578,2.0,0.0,0,0,90,0.0,0.0078125,0.125,0.0,0.0,0.0,2.0,24.0
0,0,0.0078125,0.000030517578,2.0,0.0,0,0,90,0.000030517578,0.0078125,0.125,0.0,0.0,0.0,2.0,24.0
0,0,0.0078125,0.000030517578,2.0,0.0,0,0,90,0.000030517578,0.0078125,0.125,0.0,0.0,0.0,2.0,24.0
0,0,0.0078125,0.000030517578,2.0,0.0,0,0,90,0.000030517578,0.0078125,0.125,0.0,0.0,0.0,2.0,24.0
0,0,0.0078125,0.000030517578,2.0,0.0,0,0,90,0.000030517578,0.0078125,0.125,0.0,0.0,0.0,2.0,24.0
0,0,0.000030517578,0.000030517578,2.0,0.0,0,0,90,0.0,0.0078125,0.125,0.0,0.0,0.0,2.0,24.0
0,0,0.0078125,0.000030517578,2.0,0.0,0,0,90,0.000030517578,0.0078125,0.0078125,0.0,0.0,0.0,2.0,24.0
0,0,0.0078125,0.000030517578,2.0,0.0,0,0,90,0.0,0.0078125,0.125,0.0,0.0,2.2959e-41,2.0,24.0
0,0,0.0078125,0.000030517578,2.0,0.0,0,0,90,0.0,0.0078125,0.125,0.0,0.0,0.0,2.0,24.0
0,0,0.0078125,0.000030517578,2.0,0.0,0,0,90,0.000030517578,0.0078125,0.125,0.0,0.0,0.0,2.0,24.0
0,0,0.0078125,0.000030517578,2.0,0.0,0,0,90,0.0,0.0078125,0.0078125,0.0,0.0,0.0,2.0,24.0
0,0,0.0078125,0.000030517578,2.0,0.0,0,0,90,0.0,0.0078125,0.0078125,0.0,0.0,0.0,2.0,24.0
0,0,0.0078125,0.000030517578,2.0,0.0,0,0,90,0.000030517578,0.0078125,0.0078125,0.0,0.0,6.276e-42,2.0,24.0
0,0,0.0078125,0.000030517578,2.0,0.0,0,0,90,0.000030517578,0.0078125,0.0078125,0.0,0.0,0.0,2.0,24.0
0,0,0.00012207031,0.000030517578,2.0,0.0,0,0,90,0.0,0.0078125,0.0078125,0.0,0.0,0.0,2.0,24.0
0,0,0.00012207031,0.000030517578,2.0,0.0,0,0,90,0.000030517578,0.0078125,0.125,0.0,0.0,0.0,2.0,24.0
0,0,0.00012207031,0.000030517578,2.0,0.0,0,0,90,0.000030517578,0.0078125,0.0078125,0.0,0.0,0.0,2.0,24.0
0,0,0.0078125,0.000030517578,2.0,0.0,0,0,90,0.0,0.0078125,0.0078125,0.0,0.0,0.0,2.0,24.0
0,0,0.0078125,0.000030517578,2.0,0.0,0,0,90,0.000030517578,0.000030517578,0.0078125,0.0,0.0,0.0,2.0,24.0
0,0,0.0078125,0.000030517578,2.0,0.0,0,0,90,0.000030517578,0.000030517578,0.0078125,0.0,0.0,0.0,2.0,24.0
0,0,0.0078125,0.000030517578,2.0,0.0,0,0,90,0.0,0.000030517578,0.0078125,0.0,0.0,3.57e-43,2.0,24.0
0,0,0.0078125,0.000030517578,2.0,0.0,0,0,90,0.000030517578,0.0078125,0.0078125,0.0,0.0,0.0,2.0,24.0
0,0,0.0078125,0.000030517578,2.0,0.0,0,0,90,0.000030517578,0.0078125,0.0078125,0.0,0.0,0.0,2.0,24.0
0,0,0.0078125,0.000030517578,2.0,0.0,0,0,90,0.0,0.0078125,0.125,0.0,0.0,7.17e-43,2.0,24.0
0,0,0.0078125,0.000030517578,2.0,7.34684e-40,0,0,90,0.000030517578,0.000030517578,0.0078125,7.34684e-40,9.991702e-38,0.0,2.0,24.0
0,0,0.0078125,0.000030517578,2.0,0.0,0,0,90,0.000030517578,0.0078125,0.0078125,0.0,0.0,0.0,2.0,24.0
0,0,0.000030517578,0.000030517578,2.0,0.0,0,0,90,0.000030517578,0.0078125,0.0078125,0.0,0.0,0.0,2.0,24.0
0,0,0.0078125,0.000030517578,2.0,0.0,0,0,90,0.000030517578,0.0078125,0.0078125,0.0,0.0,0.0,2.0,24.0
0,0,0.0078125,0.000030517578,2.0,0.0,0,0,90,0.0,0.000030517578,0.0078125,0.0,1.1754944e-38,0.0,2.0,24.0
0,0,0.0078125,0.000030517578,2.0,0.0,0,0,90,0.0,0.0078125,0.0078125,0.0,0.0,0.0,2.0,24.0
0,0,0.0078125,0.000030517578,2.0,0.0,0,0,90,0.0,0.0078125,0.0078125,0.0,0.0,0.0,2.0,24.0
0,0,0.00012207031,0.000030517578,2.0,0.0,0,0,90,0.000030517578,0.000030517578,0.0078125,0.0,0.0,0.0,2.0,24.0
0,0,0.00012207031,0.000030517578,2.0,0.0,0,0,90,0.0,0.0078125,0.0078125,0.0,0.0,0.0,2.0,24.0
0,0,0.0078125,0.000030517578,2.0,0.0,0,0,90,0.000030517578,0.000030517578,0.0078125,0.0,0.0,0.0,2.0,24.0
0,0,0.0078125,0.000030517578,2.0,0.0,0,0,90,0.000030517578,0.0078125,0.0078125,0.0,0.0,0.0,2.0,24.0
0,0,0.0078125,0.000030517578,2.0,0.0,0,0,90,0.000030517578,0.0078125,0.125,0.0,0.0,0.0,2.0,24.0
0,0,0.0078125,4.656613e-10,2.0,0.0,0,0,90,0.0,0.0078125,0.0078125,0.0,0.0,0.0,2.0,24.0
0,0,0.00012207031,0.000030517578,2.0,0.0,0,0,90,0.0,0.0078125,0.125,0.0,0.0,0.0,2.0,24.0
0,0,0.0078125,0.000030517578,2.0,0.0,0,0,90,0.000030517578,0.0078125,0.0078125,0.0,0.0,0.0,2.0,24.0
0,0,0.0078125,4.656613e-10,2.0,0.0,0,0,90,0.0,0.0078125,0.0078125,0.0,0.0,0.0,2.0,24.0
0,0,0.0078125,0.000030517578,2.0,0.0,0,0,90,0.000030517578,0.0078125,0.0078125,0.0,0.0,0.0,2.0,24.0
0,0,0.000030517578,0.000030517578,2.0,0.0,0,0,90,0.000030517578,0.0078125,0.0078125,0.0,7.34684e-40,0.0,2.0,24.0
0,0,0.0078125,0.000030517578,2.0,0.0,0,0,90,0.000030517578,0.0078125,0.0078125,0.0,0.0,0.0,2.0,24.0
0,0,0.0078125,0.000030517578,2.0,9.403955e-38,0,0,90,0.000030517578,0.0078125,0.125,9.403955e-38,0.0,0.0,2.0,24.0
0,0,0.0078125,0.000030517578,2.0,0.0,0,0,90,0.000030517578,0.0078125,0.125,0.0,0.0,1.12e-42,2.0,24.0
0,0,0.03125,0.000030517578,2.0,0.0,0,0,90,0.000030517578,0.0078125,0.0078125,0.0,0.0,0.0,2.25,24.0
0,0,0.0078125,0.000030517578,2.0,7.34684e-40,0,0,90,0.000030517578,0.0078125,0.0078125,7.34684e-40,0.0,0.0,2.0,24.0
0,0,0.000030517578,0.000030517578,2.0,0.0,0,0,90,0.000030517578,0.0078125,0.0078125,0.0,0.0,0.0,2.0,24.0
0,0,0.0078125,0.000030517578,2.0,0.0,0,0,90,0.000030517578,0.000030517578,0.0078125,0.0,0.0,0.0,2.0,24.0
0,0,0.03125,0.000030517578,2.0,0.0,0,0,90,0.0,0.0078125,0.0078125,0.0,0.0,0.0,2.0,24.0
0,0,0.00012207031,0.000030517578,2.0,0.0,0,0,90,0.0,0.0078125,0.0078125,0.0,0.0,0.0,2.0,24.0
0,0,0.000030517578,0.000030517578,2.0,0.0,0,0,90,0.000030517578,0.000030517578,0.0078125,0.0,0.0,2.2959e-41,2.0,24.0
0,0,0.0078125,0.000030517578,2.0,0.0,0,0,90,0.0,0.0078125,0.0078125,0.0,0.0,1.435e-42,2.0,24.0
0,0,0.0078125,0.000030517578,2.0,0.0,0,0,90,0.0,0.0078125,0.0078125,0.0,0.0,0.0,2.0,24.0
0,0,0.00012207031,0.000030517578,2.0,0.0,0,0,90,0.000030517578,0.000030517578,0.0078125,0.0,7.34684e-40,0.0,2.0,24.0
0,0,0.0078125,0.000030517578,2.0,0.0,0,0,90,0.000030517578,0.0078125,0.0078125,0.0,0.0,2.23e-43,2.0,24.0
0,0,0.0078125,0.000030517578,2.0,0.0,0,0,90,0.000030517578,0.000030517578,0.0078125,0.0,0.0,0.0,2.0,24.0
0,0,0.0078125,0.000030517578,2.0,0.0,0,0,90,0.000030517578,0.000030517578,0.0078125,0.0,0.0,7.17e-43,2.0,24.0
0,0,0.00012207031,0.000030517578,2.0,0.0,0,0,90,0.000030517578,0.000030517578,0.125,0.0,0.0,0.0,2.0,24.0
0,0,0.000030517578,0.000030517578,2.0,0.0,0,0,90,0.000030517578,0.0078125,0.0078125,0.0,0.0,0.0,2.0,24.0
0,0,0.000030517578,0.000030517578,2.0,0.0,0,0,90,0.0,0.0078125,0.125,0.0,0.0,1.78e-43,2.0,24.0
0,0,0.0078125,0.000030517578,2.0,0.0,0,0,90,0.000030517578,0.0078125,0.0078125,0.0,0.0,0.0,2.0,24.0
0,0,0.03125,0.000030517578,2.0,0.0,0,0,90,0.000030517578,0.000030517578,0.0078125,0.0,0.0,0.0,2.0,24.0
0,0,0.0078125,0.000030517578,2.0,0.0,0,0,90,0.000030517578,0.000030517578,0.0078125,0.0,0.0,0.0,2.0,24.0
0,0,0.00012207031,0.000030517578,2.0,0.0,0,0,90,0.000030517578,0.0078125,0.0078125,0.0,0.0,0.0,2.0,24.0
0,0,0.0078125,0.000030517578,2.0,0.0,0,0,90,0.0,0.0078125,0.0078125,0.0,0.0,0.0,2.0,24.0
0,0,0.0078125,0.000030517578,2.0,0.0,0,0,90,0.0,0.0078125,0.0078125,0.0,0.0,7.34684e-40,2.0,24.0
0,0,0.0078125,0.000030517578,2.0,0.0,0,0,90,0.000030517578,0.0078125,0.0078125,0.0,0.0,4.124e-42,2.0,24.0
0,0,0.0078125,0.000030517578,2.0,0.0,0,0,90,0.0,0.0078125,0.0078125,0.0,0.0,0.0,2.0,24.0
0,0,0.0078125,0.000030517578,2.0,0.0,0,0,90,0.0,0.0078125,0.0078125,0.0,0.0,0.0,2.0,24.0
0,0,0.0078125,0.000030517578,2.0,0.0,0,0,90,0.000030517578,0.0078125,0.0078125,0.0,0.0,0.0,2.25,24.0
0,0,0.0078125,0.000030517578,2.0,0.0,0,0,90,0.000030517578,0.0078125,0.0078125,0.0,0.0,0.0,2.0,24.0
0,0,0.0078125,0.000030517578,2.0,0.0,0,0,90,0.000030517578,0.0078125,0.0078125,0.0,0.0,0.0,2.0,24.0
0,0,0.0078125,0.000030517578,2.0,0.0,0,0,90,0.0,0.0078125,0.0078125,0.0,7.34684e-40,1.075e-42,2.0,24.0
0,0,0.0078125,0.000030517578,2.0,0.0,0,0,90,0.000030517578,0.0078125,0.00048828125,0.0,0.0,0.0,2.0,24.0
0,0,0.0078125,0.000030517578,2.0,0.0,0,0,90,0.000030517578,0.0078125,0.0078125,0.0,0.0,0.0,2.25,24.0
0,0,0.0078125,0.000030517578,2.0,0.0,0,0,90,0.0,0.0078125,0.0078125,0.0,7.34684e-40,0.0,2.25,24.0
0,0,0.00012207031,0.000030517578,2.0,0.0,0,0,90,0.000030517578,0.0078125,0.0078125,0.0,0.0,0.0,2.25,24.0
0,0,0.00012207031,0.000030517578,2.0,0.0,0,0,90,0.0,0.000030517578,0.0078125,0.0,0.0,0.0,2.0,24.0
0,0,0.0078125,0.000030517578,2.0,0.0,0,0,90,0.000030517578,0.0078125,0.0078125,0.0,0.0,0.0,2.25,24.0
0,0,0.0078125,0.000030517578,2.0,0.0,0,0,90,0.0,0.0078125,0.0078125,0.0,0.0,0.0,2.0,24.0
0,0,0.0078125,0.000030517578,2.0,0.0,0,0,90,0.000030517578,0.000030517578,0.0078125,0.0,0.0,1.435e-42,2.0,24.0
0,0,0.0078125,0.000030517578,2.0,0.0,0,0,90,0.0,0.0078125,0.0078125,0.0,1.469368e-39,0.0,2.0,24.0
0,0,0.0078125,0.000030517578,2.0,0.0,0,0,90,0.0,0.000030517578,0.0078125,0.0,0.0,0.0,2.0,24.0
0,0,0.0078125,0.000030517578,2.0,7.34684e-40,0,0,90,0.000030517578,0.0078125,0.0078125,7.34684e-40,0.0,0.0,2.0,24.0
0,0,0.0078125,0.000030517578,2.0,0.0,0,0,90,0.000030517578,0.0078125,0.0078125,0.0,0.0,0.0,2.0,24.0
0,0,0.0078125,0.000030517578,2.0,0.0,0,0,90,0.0,0.0078125,0.0078125,0.0,0.0,0.0,2.0,24.0
0,0,0.0078125,0.000030517578,2.0,0.0,0,0,90,0.0,0.0078125,0.0078125,0.0,0.0,0.0,2.0,24.0
0,0,0.00012207031,0.000030517578,2.0,0.0,0,0,90,0.000030517578,0.0078125,0.0078125,0.0,0.0,7.891e-42,2.25,24.0
0,0,0.0078125,0.000030517578,2.0,0.0,0,0,90,0.000030517578,0.000030517578,0.0078125,0.0,0.0,7.17e-43,2.0,24.0
0,0,0.0078125,0.000030517578,2.0,7.34684e-40,0,0,90,0.000030517578,0.0078125,0.0078125,7.34684e-40,7.34684e-40,0.0,2.0,24.0
0,0,0.03125,0.000030517578,2.0,7.34684e-40,0,0,90,0.0,0.000030517578,0.0078125,7.34684e-40,0.0,0.0,2.0,24.0
0,0,0.00012207031,0.000030517578,2.0,0.0,0,0,90,0.000030517578,0.0078125,0.0078125,0.0,0.0,2.87e-42,2.0,24.0
0,0,0.0078125,0.000030517578,2.0,7.34684e-40,0,0,90,0.000030517578,0.0078125,0.0078125,7.34684e-40,0.0,0.0,2.0,24.0
0,0,0.0078125,0.000030517578,2.0,0.0,0,0,90,0.0,0.0078125,0.0078125,0.0,0.0,1.19098e-40,2.0,24.0
0,0,0.000030517578,0.000030517578,2.0,0.0,0,0,90,0.000030517578,0.0078125,0.0078125,0.0,0.0,2.87e-42,2.0,24.0
0,0,0.0078125,0.000030517578,2.0,-0.0,0,0,90,0.000030517578,0.0078125,0.0078125,-0.0,0.0,0.0,2.0,24.0
0,0,0.0078125,0.000030517578,2.0,0.0,0,0,90,0.000030517578,0.0078125,0.0078125,0.0,0.0,7.34684e-40,2.0,24.0
0,0,0.0078125,0.000030517578,2.0,0.0,0,0,90,0.000030517578,0.0078125,0.0078125,0.0,0.0,0.0,2.0,24.0
0,0,0.0078125,0.000030517578,2.0,0.0,0,0,90,0.0,0.0078125,0.000030517578,0.0,0.0,0.0,2.0,24.0
0,0,0.0078125,0.000030517578,2.0,0.0,0,0,90,0.0,0.000030517578,0.0078125,0.0,0.0,0.0,2.0,24.0
0,0,0.0078125,0.000030517578,2.0,7.34684e-40,0,0,90,0.000030517578,0.0078125,0.0078125,7.34684e-40,0.0,0.0,2.0,24.0
0,0,0.0078125,0.000030517578,2.0,0.0,0,0,90,0.0,0.000030517578,0.0078125,0.0,0.0,0.0,2.0,24.0
0,0,0.00012207031,0.000030517578,2.0,7.34684e-40,0,0,90,0.000030517578,0.0078125,0.0078125,7.34684e-40,0.0,2.87e-42,2.0,24.0
0,0,0.0078125,0.000030517578,2.0,0.0,0,0,90,0.000030517578,0.0078125,0.0078125,0.0,0.0,0.0,2.0,24.0
0,0,0.000030517578,0.000030517578,2.0,0.0,0,0,90,0.000030517578,0.0078125,0.0078125,0.0,0.0,0.0,2.0,24.0
0,0,0.0078125,0.000030517578,2.0,0.0,0,0,90,0.000030517578,0.0078125,0.0078125,0.0,0.0,0.0,2.0,24.0
0,0,0.0078125,0.000030517578,2.0,0.0,0,0,90,0.000030517578,0.0078125,0.000030517578,0.0,0.0,0.0,2.0,24.0
0,0,0.00012207031,0.000030517578,2.0,0.0,0,0,90,0.000030517578,0.0078125,0.00048828125,0.0,0.0,0.0,2.0,24.0
0,0,0.0078125,0.000030517578,2.0,0.0,0,0,90,0.0,0.0078125,0.00048828125,0.0,0.0,0.0,2.25,24.0
0,0,0.0078125,0.000030517578,2.0,7.34684e-40,0,0,90,0.000030517578,0.0078125,0.0078125,7.34684e-40,0.0,0.0,2.0,24.0
0,0,0.0078125,0.000030517578,2.0,0.0,0,0,90,0.0,0.0078125,0.0078125,0.0,0.0,1.148e-41,2.0,24.0
0,0,0.0078125,0.000030517578,2.0,0.0,0,0,90,0.000030517578,0.0078125,0.0078125,0.0,0.0,0.0,2.0,24.0
0,0,0.0078125,0.000030517578,2.0,0.0,0,0,90,0.000030517578,0.0078125,0.0078125,0.0,0.0,0.0,2.0,24.0
0,0,0.0078125,0.000030517578,2.0,0.0,0,0,90,0.000030517578,0.000030517578,0.00048828125,0.0,0.0,0.0,2.0,24.0
0,0,0.03125,0.000030517578,2.0,0.0,0,0,90,0.000030517578,0.0078125,0.0078125,0.0,0.0,0.0,2.0,24.0
0,0,0.0078125,0.000030517578,2.0,0.0,0,0,90,0.000030517578,0.0078125,0.125,0.0,0.0,0.0,2.0,24.0
0,0,0.00012207031,0.000030517578,2.0,0.0,0,0,90,0.000030517578,0.000030517578,0.125,0.0,9.403955e-38,0.0,2.0,24.0
0,0,0.03125,0.000030517578,2.0,0.0,0,0,90,0.000030517578,0.0078125,0.0078125,0.0,0.0,0.0,2.0,24.0
0,0,0.000030517578,0.000030517578,2.0,0.0,0,0,90,0.000030517578,0.0078125,0.125,0.0,0.0,1.254e-42,2.0,24.0
0,0,0.0078125,0.000030517578,2.0,0.0,0,0,90,0.000030517578,0.0078125,0.125,0.0,7.34684e-40,0.0,2.0,24.0
0,0,0.0078125,0.000030517578,2.0,0.0,0,0,90,0.000030517578,0.0078125,0.0078125,0.0,0.0,0.0,2.25,24.0
0,0,0.0078125,0.000030517578,2.0,0.0,0,0,90,0.000030517578,0.0078125,0.0078125,0.0,0.0,0.0,2.0,24.0
0,0,0.0078125,0.000030517578,2.0,0.0,0,0,90,0.0,0.0078125,0.0078125,0.0,0.0,0.0,2.0,24.0
0,0,0.0078125,0.000030517578,2.0,7.34684e-40,0,0,90,0.000030517578,0.000030517578,0.0078125,7.34684e-40,0.0,0.0,2.0,24.0
0,0,0.0078125,0.000030517578,2.0,0.0,0,0,90,0.0,0.000030517578,0.0078125,0.0,0.0,0.0,2.25,24.0
0,0,0.0078125,0.000030517578,2.0,0.0,0,0,90,0.000030517578,0.0078125,0.0078125,0.0,0.0,0.0,2.0,24.0
0,0,0.00012207031,0.000030517578,2.0,0.0,0,0,90,0.000030517578,0.0078125,0.0078125,0.0,0.0,0.0,2.0,24.0
0,0,0.000030517578,0.000030517578,2.0,0.0,0,0,90,0.000030517578,0.000030517578,0.0078125,0.0,0.0,0.0,2.0,24.0
0,0,0.0078125,0.000030517578,2.0,0.0,0,0,90,0.0,0.000030517578,0.0078125,0.0,0.0,0.0,2.0,24.0
0,0,0.0078125,0.000030517578,2.0,0.0,0,0,90,0.0,0.000030517578,0.0078125,0.0,0.0,0.0,2.0,24.0
0,0,0.0078125,0.000030517578,2.0,0.0,0,0,90,0.0,0.0078125,0.0078125,0.0,0.0,0.0,2.0,24.0
0,0,0.0078125,0.000030517578,2.0,0.0,0,0,90,0.000030517578,0.000030517578,0.0078125,0.0,0.0,2.332e-42,2.0,24.0
0,0,0.0078125,0.000030517578,2.0,0.0,0,0,90,0.000030517578,0.0078125,0.0078125,0.0,0.0,2.87e-42,2.0,24.0
0,0,0.000030517578,0.000030517578,2.0,0.0,0,0,90,0.000030517578,0.0078125,0.0078125,0.0,0.0,0.0,2.0,24.0
0,0,0.0078125,0.000030517578,2.0,0.0,0,0,90,0.0,0.0078125,0.0078125,0.0,0.0,0.0,2.0,24.0
0,0,0.00012207031,0.000030517578,2.0,0.0,0,0,90,0.000030517578,0.000030517578,0.0078125,0.0,0.0,0.0,2.0,24.0
0,0,0.03125,0.000030517578,2.0,0.0,0,0,90,0.0,0.0078125,0.0078125,0.0,0.0,0.0,2.0,24.0
0,0,0.03125,0.000030517578,2.0,-0.0,0,0,90,0.0,0.0078125,0.125,-0.0,0.0,0.0,2.0,24.0
0,0,0.000030517578,0.000030517578,2.0,0.0,0,0,90,0.000030517578,0.0078125,0.125,0.0,0.0,0.0,2.0,24.0
0,0,0.0078125,0.000030517578,2.0,0.0,0,0,90,0.0,0.0078125,0.125,0.0,0.0,0.0,2.0,24.0
0,0,0.0078125,0.000030517578,2.0,0.0,0,0,90,0.0,0.0078125,0.125,0.0,0.0,0.0,2.25,24.0
0,0,0.03125,0.000030517578,2.0,0.0,0,0,90,0.000030517578,0.0078125,0.125,0.0,0.0,0.0,2.0,24.0
0,0,0.000030517578,0.000030517578,2.0,0.0,0,0,90,0.000030517578,0.0078125,0.125,0.0,0.0,0.0,2.0,24.0
0,0,0.03125,0.000030517578,2.0,0.0,0,0,90,0.000030517578,0.0078125,0.0078125,0.0,0.0,0.0,2.0,24.0
0,0,0.03125,0.000030517578,2.0,0.0,0,0,90,0.000030517578,0.0,0.125,0.0,0.0,3.57e-43,2.0,24.0
0,0,0.0078125,0.000030517578,2.0,0.0,0,0,90,0.000030517578,0.000030517578,0.0078125,0.0,0.0,0.0,2.0,24.0
0,0,0.00012207031,0.000030517578,2.0,0.0,0,0,90,0.000030517578,0.0078125,0.0078125,0.0,0.0,0.0,2.0,24.0
0,0,0.0078125,0.000030517578,2.0,0.0,0,0,90,0.0,0.0078125,0.0078125,0.0,0.0,0.0,2.0,24.0
0,0,0.000030517578,0.000030517578,2.0,0.0,0,0,90,0.000030517578,0.0078125,0.0078125,0.0,7.34684e-40,0.0,2.0,24.0
0,0,0.0078125,0.000030517578,2.0,0.0,0,0,90,0.000030517578,0.0078125,0.125,0.0,0.0,0.0,2.0,24.0
0,0,0.0078125,0.000030517578,2.0,0.0,0,0,90,0.0,0.0078125,0.0078125,0.0,0.0,0.0,2.0,24.0
0,0,0.0078125,0.000030517578,2.0,0.0,0,0,90,0.000030517578,0.0078125,0.0078125,0.0,0.0,0.0,2.0,24.0
0,0,0.0078125,0.000030517578,2.0,0.0,0,0,90,0.000030517578,0.0078125,0.0078125,0.0,0.0,7.34684e-40,2.0,24.0
0,0,0.0078125,0.000030517578,2.0,0.0,0,0,90,0.000030517578,0.0078125,0.0078125,0.0,0.0,0.0,2.0,24.0
0,0,0.0078125,0.000030517578,2.0,-0.0,0,0,90,0.0,0.0078125,0.0078125,-0.0,0.0,0.0,2.0,24.0
0,0,0.000030517578,0.000030517578,2.0,0.0,0,0,90,0.0,0.0078125,0.0078125,0.0,0.0,0.0,2.0,24.0
0,0,0.0078125,0.000030517578,2.0,0.0,0,0,90,0.0,0.0078125,0.0078125,0.0,0.0,0.0,2.0,24.0
0,0,0.0078125,0.000030517578,2.0,0.0,0,0,90,0.000030517578,0.0078125,0.0078125,0.0,0.0,0.0,2.0,24.0
0,0,0.0078125,0.000030517578,2.0,0.0,0,0,90,0.0,0.0078125,0.0078125,0.0,0.0,0.0,2.0,24.0
0,0,0.000030517578,4.656613e-10,2.0,0.0,0,0,90,0.0,0.0078125,0.125,0.0,0.0,2.2959e-41,2.0,24.0
0,0,0.0078125,0.000030517578,2.0,0.0,0,0,90,0.000030517578,0.000030517578,0.0078125,0.0,0.0,0.0,2.0,24.0
0,0,0.0078125,0.000030517578,2.0,0.0,0,0,90,0.0,0.0078125,0.0078125,0.0,0.0,0.0,2.0,24.0
0,0,0.0078125,0.000030517578,2.0,0.0,0,0,90,0.000030517578,0.0078125,0.0078125,0.0,0.0,-1.794e-42,2.0,24.0
0,0,0.0078125,0.000030517578,2.0,0.0,0,0,90,0.000030517578,0.0078125,0.0078125,0.0,0.0,0.0,2.0,24.0
0,0,0.0078125,0.000030517578,2.0,0.0,0,0,90,0.000030517578,0.0078125,0.0078125,0.0,0.0,0.0,2.0,24.0
0,0,0.0078125,0.000030517578,2.0,0.0,0,0,90,0.000030517578,0.0078125,0.0078125,0.0,0.0,0.0,2.0,24.0
0,0,0.0078125,0.000030517578,2.0,0.0,0,0,90,0.0,0.0078125,0.0078125,0.0,0.0,0.0,2.25,24.0
0,0,0.0078125,0.000030517578,2.0,0.0,0,0,90,0.000030517578,0.0078125,0.125,0.0,0.0,0.0,2.0,24.0
0,0,0.0078125,0.000030517578,2.0,0.0,0,0,90,0.000030517578,0.000030517578,0.125,0.0,0.0,0.0,2.25,24.0
0,0,0.0078125,0.000030517578,2.0,0.0,0,0,90,0.000030517578,0.0078125,0.125,0.0,0.0,0.0,2.0,24.0
0,0,0.0078125,0.000030517578,2.0,0.0,0,0,90,0.0,0.0078125,0.0078125,0.0,0.0,0.0,2.0,24.0
0,0,0.03125,4.656613e-10,2.0,0.0,0,0,90,0.000030517578,0.0078125,0.0078125,0.0,0.0,0.0,2.0,24.0
0,0,0.0078125,0.000030517578,2.0,0.0,0,0,90,0.0,0.0078125,0.0078125,0.0,0.0,2.2959e-41,2.0,24.0
0,0,0.0078125,0.000030517578,2.0,0.0,0,0,90,0.0,0.0078125,0.125,0.0,0.0,2.2959e-41,2.0,24.0
0,0,0.0078125,0.000030517578,2.0,0.0,0,0,90,0.000030517578,0.0078125,0.0078125,0.0,0.0,0.0,2.0,24.0
0,0,0.0078125,0.000030517578,2.0,0.0,0,0,90,0.000030517578,0.0078125,0.0078125,0.0,0.0,0.0,2.0,24.0
0,0,0.0078125,0.000030517578,2.0,0.0,0,0,90,0.000030517578,0.0078125,0.125,0.0,0.0,0.0,2.0,24.0
0,0,0.0078125,0.000030517578,2.0,0.0,0,0,90,0.000030517578,0.0078125,0.125,0.0,0.0,0.0,2.0,24.0
0,0,0.0078125,0.000030517578,2.0,0.0,0,0,90,0.000030517578,0.0078125,0.0078125,0.0,7.34684e-40,0.0,2.0,24.0
0,0,0.0078125,0.000030517578,2.0,0.0,0,0,90,0.000030517578,0.0078125,0.0078125,0.0,0.0,-0.0,2.0,24.0
0,0,0.0078125,0.000030517578,2.0,0.0,0,0,90,0.0,0.0078125,0.125,0.0,0.0,0.0,2.0,24.0
0,0,0.0078125,0.000030517578,2.0,0.0,0,0,90,0.000030517578,0.0078125,0.125,0.0,0.0,0.0,2.0,24.0
0,0,0.0078125,0.000030517578,2.0,0.0,0,0,90,0.0,0.0078125,0.125,0.0,0.0,0.0,2.0,24.0
0,0,0.0078125,0.000030517578,2.0,0.0,0,0,90,0.0,0.0078125,0.125,0.0,0.0,0.0,2.0,24.0
0,0,0.0078125,0.000030517578,2.0,0.0,0,0,90,0.000030517578,0.0078125,0.125,0.0,0.0,0.0,2.0,24.0
0,0,0.0078125,0.000030517578,2.0,0.0,0,0,90,0.000030517578,0.0078125,0.125,0.0,0.0,2.779e-42,2.0,24.0
0,0,0.0078125,0.000030517578,2.0,0.0,0,0,90,0.000030517578,0.0078125,0.125,0.0,0.0,0.0,2.0,24.0
0,0,0.0078125,0.000030517578,2.0,0.0,0,0,90,0.000030517578,0.0078125,0.125,0.0,0.0,0.0,2.0,24.0
0,0,0.0078125,0.000030517578,2.0,0.0,0,0,90,0.0,0.0078125,0.125,0.0,0.0,3.57e-43,2.0,24.0
16384,0,0.0078125,0.000030517578,2.0,0.0,0,0,90,0.000030517578,0.0078125,0.125,0.0,0.0,0.0,2.0,24.0
16384,0,0.0078125,0.000030517578,2.0,0.0,0,0,90,0.000030517578,0.0078125,0.125,0.0,0.0,0.0,2.0,24.0
16384,0,0.0078125,0.000030517578,2.0,0.0,0,0,90,0.0,0.0078125,0.125,0.0,0.0,0.0,2.0,24.0
16384,0,0.0078125,0.000030517578,2.0,0.0,0,0,90,0.0,0.0078125,0.0078125,0.0,0.0,1.469368e-39,2.0,24.0
16384,0,0.0078125,0.000030517578,2.0,0.0,0,0,90,0.000030517578,0.0078125,0.0078125,0.0,0.0,0.0,2.0,24.0
16384,0,0.0078125,0.000030517578,2.0,0.0,0,0,90,0.0,0.0078125,0.125,0.0,7.34684e-40,0.0,2.0,24.0
16384,0,0.0078125,4.656613e-10,2.0,0.0,0,0,90,0.0,0.0078125,0.125,0.0,0.0,0.0,2.25,24.0
16384,0,0.0078125,0.000030517578,2.0,0.0,0,0,90,0.0,0.0078125,0.125,0.0,0.0,0.0,2.0,24.0
16384,0,0.0078125,0.000030517578,2.0,0.0,0,0,90,0.0,0.0078125,0.00048828125,0.0,0.0,0.0,2.0,24.0
16384,0,0.0,0.000030517578,2.0,0.0,0,0,90,0.0,0.0078125,0.125,0.0,0.0,0.0,2.0,24.0
16384,0,0.0078125,0.000030517578,2.0,0.0,0,0,90,0.0,0.0078125,0.125,0.0,0.0,0.0,2.0,24.0
16384,0,0.0,0.000030517578,2.0,0.0,0,0,90,0.0,0.0078125,0.125,0.0,0.0,0.0,2.25,24.0
16384,0,0.0,0.000030517578,2.0,0.0,0,0,90,0.0,0.0078125,0.0078125,0.0,0.0,0.0,2.0,24.0
16384,0,0.0078125,0.000030517578,2.0,0.0,0,0,90,0.0,0.0078125,0.0078125,0.0,0.0,0.0,2.0,24.0
16384,0,0.0078125,0.000030517578,2.0,0.0,0,0,90,0.0,0.0078125,0.125,0.0,0.0,0.0,2.0,24.0
16384,0,0.0078125,0.000030517578,2.0,0.0,0,0,90,0.000030517578,0.0078125,0.125,0.0,0.0,0.0,2.0,24.0
16384,0,0.0078125,0.000030517578,2.0,0.0,0,0,90,0.0,0.0078125,0.125,0.0,0.0,2.68e-43,2.0,24.0
16384,0,0.0078125,0.000030517578,2.0,0.0,0,0,90,0.0,0.0078125,0.125,0.0,0.0,0.0,2.0,24.0
16384,0,0.0078125,4.656613e-10,2.0,0.0,0,0,90,0.0,0.000030517578,0.125,0.0,0.0,0.0,2.0,24.0
16384,0,0.0078125,0.000030517578,2.0,0.0,0,0,90,0.000030517578,0.000030517578,0.0078125,0.0,0.0,3.59e-43,2.0,24.0
16384,0,0.0078125,4.656613e-10,2.0,0.0,0,0,90,0.000030517578,0.0078125,0.0078125,0.0,0.0,0.0,2.0,24.0
0,0,0.0078125,0.000030517578,2.0,0.0,0,0,90,0.0,0.0078125,0.0078125,0.0,0.0,0.0,2.0,24.0
0,0,0.0078125,0.000030517578,2.0,0.0,0,0,90,0.000030517578,0.000030517578,0.0078125,0.0,0.0,0.0,2.0,24.0
0,0,0.0078125,0.000030517578,2.0,0.0,0,0,90,0.0,0.0078125,0.00048828125,0.0,0.0,0.0,2.0,24.0
0,0,0.0078125,0.000030517578,2.0,0.0,0,0,90,0.000030517578,0.0078125,0.0078125,0.0,0.0,0.0,2.0,24.0
0,0,0.0078125,0.000030517578,2.0,0.0,0,0,90,0.000030517578,0.0078125,0.0078125,0.0,0.0,0.0,2.0,24.0
0,0,0.0078125,0.000030517578,2.0,0.0,0,0,90,0.0,0.0078125,0.0078125,0.0,0.0,0.0,2.0,24.0
0,0,0.0078125,0.000030517578,2.0,0.0,0,0,90,0.000030517578,0.0078125,0.0078125,0.0,0.0,0.0,2.0,24.0
0,0,0.0078125,4.656613e-10,2.0,0.0,0,0,90,0.000030517578,0.0078125,0.0078125,0.0,0.0,0.0,2.0,24.0
0,0,0.0078125,4.656613e-10,2.0,0.0,0,0,90,0.0,0.0078125,0.0078125,0.0,0.0,0.0,2.0,24.0
0,0,0.0078125,0.000030517578,2.0,0.0,0,0,90,0.0,0.0078125,0.0078125,0.0,0.0,0.0,2.0,24.0
0,0,0.0078125,0.000030517578,2.0,0.0,0,0,90,0.0,0.0078125,0.125,0.0,0.0,0.0,2.0,24.0
0,0,0.0078125,0.000030517578,2.0,0.0,0,0,90,0.0,0.0078125,0.0078125,0.0,0.0,5.38e-43,2.0,24.0
0,0,0.03125,0.000030517578,2.0,0.0,0,0,90,0.000030517578,0.0078125,0.125,0.0,0.0,1.469368e-39,2.0,24.0
0,0,0.0078125,0.000030517578,2.0,0.0,0,0,90,0.000030517578,0.0078125,0.125,0.0,0.0,2.68e-43,2.0,24.0
0,0,0.0078125,0.000030517578,2.0,0.0,0,0,90,0.000030517578,0.0078125,0.125,0.0,0.0,0.0,2.0,24.0
0,0,0.0078125,0.000030517578,2.0,0.0,0,0,90,0.000030517578,0.0078125,0.125,0.0,0.0,0.0,2.25,24.0
0,0,0.03125,0.000030517578,2.0,0.0,0,0,90,0.000030517578,0.0078125,0.125,0.0,0.0,0.0,2.0,24.0
0,0,0.03125,0.000030517578,2.0,0.0,0,0,90,0.000030517578,0.0078125,0.125,0.0,0.0,0.0,2.0,24.0
0,0,0.0078125,0.000030517578,2.0,0.0,0,0,90,0.000030517578,0.0078125,0.125,0.0,0.0,0.0,2.0,24.0
0,0,0.0078125,0.000030517578,2.0,0.0,0,0,90,0.000030517578,0.0078125,0.125,0.0,0.0,0.0,2.0,24.0
0,0,0.0078125,0.000030517578,2.0,0.0,0,0,90,0.000030517578,0.0078125,0.125,0.0,0.0,0.0,2.0,24.0
0,0,0.0078125,0.000030517578,2.0,0.0,0,0,90,0.000030517578,0.0078125,0.125,0.0,0.0,0.0,2.0,24.0
0,0,0.0078125,0.000030517578,2.0,0.0,0,0,90,0.0,0.0078125,0.125,0.0,0.0,1.254e-42,2.0,24.0
0,0,0.0078125,0.000030517578,2.0,0.0,0,0,90,0.0,0.0078125,0.125,0.0,0.0,0.0,2.0,24.0
0,0,0.0078125,0.000030517578,2.0,0.0,0,0,90,0.000030517578,0.0078125,0.125,0.0,0.0,1.435e-42,2.0,24.0
0,0,0.0078125,4.656613e-10,2.0,0.0,0,0,90,0.000030517578,0.0078125,0.125,0.0,0.0,0.0,2.0,24.0
0,0,0.03125,0.000030517578,2.0,0.0,0,0,90,0.0,0.0078125,0.125,0.0,0.0,0.0,2.0,24.0
0,0,0.0078125,0.000030517578,2.0,0.0,0,0,90,0.000030517578,0.0078125,0.125,0.0,0.0,0.0,2.0,24.0
0,0,0.03125,0.000030517578,2.0,0.0,0,0,90,0.000030517578,0.0078125,0.125,0.0,0.0,0.0,2.0,24.0
0,0,0.0078125,0.000030517578,2.0,0.0,0,0,90,0.000030517578,0.0078125,0.125,0.0,0.0,0.0,2.0,24.0
0,0,0.0078125,0.000030517578,2.0,0.0,0,0,90,0.000030517578,0.0078125,0.125,0.0,0.0,0.0,2.0,24.0
0,0,0.03125,0.000030517578,2.0,0.0,0,0,90,0.0,0.0078125,0.125,0.0,0.0,0.0,2.0,24.0
0,0,0.03125,0.000030517578,2.0,0.0,0,0,90,0.000030517578,0.0078125,0.125,0.0,0.0,0.0,2.0,24.0
0,0,0.03125,0.000030517578,2.0,0.0,0,0,90,0.000030517578,0.0078125,0.125,0.0,0.0,0.0,2.0,24.0
0,0,0.0078125,4.656613e-10,2.0,0.0,0,0,90,0.000030517578,0.0078125,0.125,0.0,0.0,0.0,2.0,24.0
0,0,0.0078125,0.000030517578,2.0,0.0,0,0,90,0.000030517578,0.0078125,0.125,0.0,0.0,0.0,2.25,24.0
0,0,0.0,0.000030517578,2.0,0.0,0,0,90,0.000030517578,0.0078125,0.0,0.0,0.0,0.0,2.0,24.0
0,0,0.03125,0.000030517578,2.0,0.0,0,0,90,0.000030517578,0.125,0.0078125,0.0,0.0,0.0,2.25,24.0
0,0,0.0078125,0.000030517578,2.0,0.0,0,0,90,0.0,0.125,0.125,0.0,0.0,0.0,2.0,24.0
0,0,0.03125,0.000030517578,2.0,0.0,0,0,90,0.000030517578,0.0078125,0.125,0.0,0.0,0.0,2.0,24.0
0,0,0.0078125,0.000030517578,2.0,-0.0,0,0,90,0.000030517578,0.125,0.125,-0.0,0.0,0.0,2.0,24.0
0,0,0.0078125,0.000030517578,2.0,0.0,0,0,90,0.000030517578,0.0078125,0.125,0.0,0.0,7.892e-42,2.0,24.0
0,0,0.03125,0.000030517578,2.0,0.0,0,0,90,0.000030517578,0.125,0.125,0.0,0.0,0.0,2.0,24.0
0,0,0.0078125,0.000030517578,2.0,0.0,0,0,90,0.0,0.125,0.125,0.0,0.0,0.0,2.0,24.0
0,0,0.03125,0.000030517578,2.0,0.0,0,0,90,0.000030517578,0.125,0.125,0.0,9.403955e-38,1.254e-42,2.25,24.0
0,0,0.03125,4.656613e-10,2.0,0.0,0,0,90,0.000030517578,0.125,0.125,0.0,0.0,0.0,2.0,24.0
0,0,0.0078125,0.000030517578,2.0,0.0,0,0,90,0.000030517578,0.125,0.125,0.0,0.0,0.0,2.0,24.0
0,0,0.03125,0.000030517578,2.0,-7.34684e-40,0,0,90,0.0,0.125,0.0078125,-7.34684e-40,0.0,0.0,2.0,24.0
0,0,0.03125,0.000030517578,2.0,0.0,0,0,90,0.000030517578,0.125,0.0078125,0.0,7.34684e-40,0.0,2.0,24.0
0,0,0.0078125,0.000030517578,2.0,0.0,0,0,90,0.000030517578,0.0078125,0.125,0.0,0.0,9.5468e-41,2.0,24.0
0,0,0.03125,4.656613e-10,2.0,0.0,0,0,90,0.0,0.0078125,0.125,0.0,0.0,0.0,2.0,24.0
0,0,0.0078125,0.000030517578,2.0,0.0,0,0,90,0.000030517578,0.0078125,0.0,0.0,0.0,0.0,2.0,24.0
0,0,0.0,0.000030517578,2.0,0.0,0,0,90,0.000030517578,0.0078125,0.0,0.0,0.0,0.0,2.0,24.0
0,0,0.03125,0.000030517578,2.0,0.0,0,0,90,0.000030517578,0.0078125,0.0078125,0.0,0.0,0.0,2.0,24.0
0,0,0.0078125,0.000030517578,2.0,0.0,0,0,90,0.0,0.0078125,0.0078125,0.0,0.0,1.148e-41,2.0,24.0
0,0,0.03125,4.656613e-10,2.0,0.0,0,0,90,0.000030517578,0.0078125,0.0078125,0.0,0.0,0.0,2.0,24.0
0,0,0.0078125,0.000030517578,2.0,1.469368e-39,0,0,90,0.0,0.125,0.0078125,1.469368e-39,2.204052e-39,0.0,2.0,24.0
0,0,0.0078125,0.000030517578,2.0,0.0,0,0,90,0.000030517578,0.125,0.0078125,0.0,0.0,0.0,2.0,24.0
0,0,0.0078125,0.000030517578,2.0,0.0,0,0,90,0.000030517578,0.0078125,0.0078125,0.0,0.0,1.076e-42,2.0,24.0
0,0,0.03125,0.000030517578,2.0,0.0,0,0,90,0.0,0.0078125,0.0078125,0.0,0.0,0.0,2.0,24.0
0,0,0.0,0.000030517578,2.0,0.0,0,0,90,0.000030517578,0.0078125,0.0078125,0.0,0.0,0.0,2.0,24.0
0,0,0.0,0.000030517578,2.0,1.469368e-39,0,0,90,0.0,0.0078125,0.000030517578,1.469368e-39,0.0,5.74e-42,2.0,24.0
0,0,0.0,0.000030517578,2.0,0.0,0,0,90,0.000030517578,0.125,0.0,0.0,0.0,0.0,2.25,24.0
0,0,0.0078125,0.000030517578,2.0,0.0,0,0,90,0.0,0.125,0.0078125,0.0,0.0,0.0,2.0,24.0
0,0,0.0078125,0.000030517578,2.0,0.0,0,0,90,0.0,0.125,0.0078125,0.0,0.0,0.0,2.0,24.0
0,0,0.0078125,0.000030517578,2.0,0.0,0,0,90,0.000030517578,0.125,0.0078125,0.0,0.0,0.0,2.0,24.0
0,0,0.0078125,0.000030517578,2.0,0.0,0,0,90,0.0,0.125,0.0,0.0,0.0,0.0,2.0,24.0
0,0,0.0,4.656613e-10,2.0,7.34684e-40,0,0,90,0.0,0.125,0.0,7.34684e-40,0.0,0.0,2.0,24.0
0,0,0.0078125,0.000030517578,2.0,1.469368e-39,0,0,90,0.000030517578,0.125,0.0078125,1.469368e-39,0.0,0.0,2.0,24.0
0,0,0.0078125,0.000030517578,2.0,0.0,0,0,90,0.0,0.0078125,0.0078125,0.0,0.0,5.74e-42,2.0,24.0
0,0,0.0078125,0.000030517578,2.0,0.0,0,0,90,0.0,0.0078125,0.0078125,0.0,0.0,0.0,2.0,24.0
0,0,0.0078125,0.000030517578,2.0,0.0,0,0,90,0.000030517578,0.125,0.125,0.0,7.34684e-40,0.0,2.25,24.0
0,0,0.0078125,0.000030517578,2.0,9.403955e-38,0,0,90,0.000030517578,0.0078125,0.0078125,9.403955e-38,0.0,0.0,2.0,24.0
0,0,0.0078125,0.000030517578,2.0,0.0,0,0,90,0.000030517578,0.0,0.0,0.0,9.403955e-38,0.0,2.0,24.0
0,0,0.0078125,0.000030517578,2.0,1.469368e-39,0,0,90,0.000030517578,0.125,0.125,1.469368e-39,0.0,0.0,2.0,24.0
0,0,0.03125,0.000030517578,2.0,9.403955e-38,0,0,90,0.000030517578,0.0078125,0.125,9.403955e-38,0.0,8.8e-44,2.0,24.0
0,0,0.03125,0.000030517578,2.0,0.0,0,0,90,0.0,0.125,0.0078125,0.0,9.403955e-38,0.0,2.0,24.0
0,0,0.0078125,0.000030517578,2.0,0.0,0,0,90,0.0,0.125,0.125,0.0,0.0,0.0,2.0,24.0
0,0,0.0078125,0.000030517578,2.0,0.0,0,0,90,0.0,0.000030517578,0.0,0.0,0.0,0.0,2.25,24.0
0,0,0.03125,0.000030517578,2.0,0.0,0,0,90,0.000030517578,0.0078125,0.0,0.0,0.0,3.631e-42,2.0,24.0
0,0,0.0078125,0.000030517578,2.0,0.0,0,0,90,0.000030517578,0.125,0.0,0.0,0.0,0.0,2.25,24.0
0,0,0.0078125,0.000030517578,2.0,9.403955e-38,0,0,90,0.000030517578,0.125,0.125,9.403955e-38,0.0,5.74e-42,2.25,24.0
0,0,0.0078125,0.000030517578,2.0,0.0,0,0,90,0.0,0.125,0.0,0.0,0.0,7.175e-42,2.0,24.0
0,0,0.03125,0.000030517578,2.0,0.0,0,0,90,0.000030517578,0.0078125,0.125,0.0,1.469368e-39,0.0,2.0,24.0
0,0,0.03125,0.000030517578,2.0,0.0,0,0,90,0.000030517578,0.0078125,0.125,0.0,7.34684e-40,9.1835e-41,2.0,24.0
0,0,0.0078125,0.000030517578,2.0,0.0,0,0,90,0.000030517578,0.125,0.125,0.0,0.0,1.470534e-39,2.0,24.0
0,0,0.0078125,0.000030517578,2.0,0.0,0,0,90,0.000030517578,0.0078125,0.125,0.0,0.0,1.166e-42,2.25,24.0
0,0,0.0078125,0.000030517578,2.0,0.0,0,0,90,0.0,0.0078125,0.125,0.0,0.0,0.0,2.0,24.0
0,0,0.03125,0.000030517578,2.0,0.0,0,0,90,0.000030517578,0.0078125,0.125,0.0,0.0,7.34684e-40,2.0,24.0
0,0,0.03125,0.000030517578,2.0,0.0,0,0,90,0.0,0.0078125,0.125,0.0,0.0,7.34684e-40,2.0,24.0
0,0,0.03125,0.000030517578,2.0,0.0,0,0,90,0.000030517578,0.0078125,0.125,0.0,0.0,2.68e-43,2.25,24.0
0,0,0.0078125,0.000030517578,2.0,0.0,0,0,90,0.0,0.125,0.125,0.0,9.991702e-38,0.0,2.0,24.0
0,0,0.0078125,4.656613e-10,2.0,0.0,0,0,90,0.000030517578,0.0078125,0.125,0.0,0.0,3.498e-42,2.0,24.0
0,0,0.0078125,0.000030517578,2.0,9.403955e-38,0,0,90,0.0,0.0078125,0.0078125,9.403955e-38,0.0,1.435e-42,2.0,24.0
0,0,0.0078125,0.000030517578,2.0,0.0,0,0,90,0.0,0.0078125,0.0078125,0.0,0.0,0.0,2.0,24.0
0,0,0.00012207031,0.000030517578,2.0,0.0,0,0,90,0.000030517578,0.0078125,0.125,0.0,0.0,0.0,2.0,24.0
0,0,0.00012207031,0.000030517578,2.0,0.0,0,0,90,0.0,0.0078125,0.0078125,0.0,0.0,1.473671e-39,2.0,24.0
0,0,0.00012207031,4.656613e-10,2.0,7.34684e-40,0,0,90,0.0,0.000030517578,0.0078125,7.34684e-40,0.0,1.794e-42,2.0,24.0
0,0,0.00012207031,0.000030517578,2.0,0.0,0,0,90,0.000030517578,0.0078125,0.0078125,0.0,0.0,5.37e-43,2.0,24.0
0,0,0.00012207031,0.000030517578,2.0,0.0,0,0,90,0.000030517578,0.000030517578,0.0078125,0.0,0.0,0.0,2.0,24.0
0,0,0.0078125,0.000030517578,2.0,0.0,0,0,90,0.0,0.0078125,0.0078125,0.0,0.0,0.0,2.25,24.0
0,0,0.0078125,0.000030517578,2.0,7.34684e-40,0,0,90,0.0,0.0078125,0.0078125,7.34684e-40,0.0,9.5423e-41,2.0,24.0
0,0,0.0078125,0.000030517578,2.0,0.0,0,0,90,0.000030517578,0.0078125,0.0078125,0.0,0.0,1.469368e-39,2.0,24.0
0,0,0.0078125,0.000030517578,2.0,0.0,0,0,90,0.000030517578,0.000030517578,0.0078125,0.0,0.0,0.0,2.0,24.0
0,0,0.00012207031,0.000030517578,2.0,0.0,0,0,90,0.000030517578,0.0078125,0.125,0.0,7.34684e-40,0.0,2.25,24.0
0,0,0.0078125,0.000030517578,2.0,0.0,0,0,90,0.000030517578,0.0078125,0.0078125,0.0,0.0,2.227011e-39,2.25,24.0
0,0,0.00012207031,0.000030517578,2.0,0.0,0,0,90,0.000030517578,0.000030517578,0.0078125,0.0,0.0,0.0,2.0,24.0
0,0,0.00012207031,0.000030517578,2.0,0.0,0,0,90,0.000030517578,0.0078125,0.0078125,0.0,0.0,1.434e-42,2.0,24.0
0,0,0.03125,0.000030517578,2.0,0.0,0,0,90,0.000030517578,0.000030517578,0.0078125,0.0,0.0,0.0,2.0,24.0
0,0,0.0078125,0.000030517578,2.0,0.0,0,0,90,0.000030517578,0.000030517578,0.0078125,0.0,0.0,0.0,2.0,24.0
0,0,0.0078125,0.000030517578,2.0,0.0,0,0,90,0.0,0.000030517578,0.0078125,0.0,0.0,0.0,2.0,24.0
0,0,0.03125,0.000030517578,2.0,0.0,0,0,90,0.000030517578,0.0078125,0.0078125,0.0,0.0,0.0,2.0,24.0
0,0,0.000030517578,0.000030517578,2.0,0.0,0,0,90,0.0,0.0078125,0.125,0.0,0.0,0.0,2.0,24.0
0,0,0.0078125,0.000030517578,2.0,0.0,0,0,90,0.0,0.0078125,0.125,0.0,0.0,0.0,2.25,24.0
0,0,0.0078125,0.000030517578,2.0,0.0,0,0,90,0.000030517578,0.0078125,0.125,0.0,0.0,2.967478e-39,2.0,24.0
0,0,0.03125,0.000030517578,2.0,0.0,0,0,90,0.0,0.0078125,0.0078125,0.0,0.0,0.0,2.25,24.0
0,0,0.0078125,0.000030517578,2.0,0.0,0,0,90,0.0,0.0078125,0.0078125,0.0,0.0,0.0,2.0,24.0
0,0,0.00012207031,0.000030517578,2.0,1.469368e-39,0,0,90,0.000030517578,0.0078125,0.0078125,1.469368e-39,7.34684e-40,8.61e-42,2.0,24.0
0,0,0.0078125,0.000030517578,2.0,0.0,0,0,90,0.000030517578,0.0078125,0.0078125,0.0,0.0,0.0,2.0,24.0
0,0,0.0078125,0.000030517578,2.0,0.0,0,0,90,0.000030517578,0.0078125,0.0078125,0.0,0.0,1.469368e-39,2.0,24.0
0,0,0.0078125,0.000030517578,2.0,2.2959e-41,0,0,90,0.0,0.0078125,0.0078125,2.2959e-41,0.0,0.0,2.0,24.0
0,0,0.0078125,0.000030517578,2.0,0.0,0,0,90,0.0,0.0078125,0.0,0.0,1.1754944e-38,0.0,2.0,24.0
0,0,0.0078125,0.000030517578,2.0,0.0,0,0,90,0.000030517578,0.0078125,0.0078125,0.0,0.0,0.0,2.25,24.0
0,0,0.00012207031,0.000030517578,2.0,0.0,0,0,90,0.0,0.000030517578,0.0078125,0.0,0.0,0.0,2.0,24.0
0,0,0.0078125,0.000030517578,2.0,0.0,0,0,90,0.0,0.000030517578,0.0078125,0.0,0.0,0.0,2.0,24.0
0,0,0.03125,0.000030517578,2.0,-0.0,0,0,90,0.000030517578,0.0078125,0.0078125,-0.0,0.0,0.0,2.0,24.0
0,0,0.0,0.000030517578,2.0,7.34684e-40,0,0,90,0.0,0.0078125,0.0078125,7.34684e-40,0.0,0.0,2.25,24.0
0,0,0.03125,0.000030517578,2.0,0.0,0,0,90,0.000030517578,0.0078125,0.125,0.0,0.0,1.469368e-39,2.0,24.0
0,0,0.03125,0.000030517578,2.0,0.0,0,0,90,0.000030517578,0.0078125,0.125,0.0,0.0,0.0,2.0,24.0
0,0,0.0078125,0.000030517578,2.0,0.0,0,0,90,0.000030517578,0.0078125,0.125,0.0,0.0,0.0,2.0,24.0
0,0,0.03125,0.000030517578,2.0,0.0,0,0,90,0.000030517578,0.0078125,0.125,0.0,0.0,0.0,2.0,24.0
0,0,0.0078125,0.000030517578,2.0,7.34684e-40,0,0,90,0.000030517578,0.0078125,0.125,7.34684e-40,0.0,7.36119e-40,2.0,24.0
0,0,0.0078125,0.000030517578,2.0,7.34684e-40,0,0,90,0.000030517578,0.0078125,0.125,7.34684e-40,0.0,0.0,2.0,24.0
0,0,0.0078125,0.000030517578,2.0,0.0,0,0,90,0.0,0.0078125,0.125,0.0,0.0,8.53737e-40,2.25,24.0
0,0,0.03125,0.000030517578,2.0,9.991702e-38,0,0,90,0.0,0.0078125,0.125,9.991702e-38,1.469368e-39,8.07e-43,2.0,24.0
0,0,0.03125,0.000030517578,2.0,0.0,0,0,90,0.000030517578,0.00048828125,0.125,0.0,0.0,2.87e-42,2.0,24.0
0,0,0.0078125,0.000030517578,2.0,0.0,0,0,90,0.0,0.0078125,0.125,0.0,0.0,2.2959e-41,2.0,24.0
0,0,0.03125,0.000030517578,2.0,9.991702e-38,0,0,90,0.000030517578,0.0078125,0.0078125,9.991702e-38,0.0,7.36119e-40,2.0,24.0
0,0,0.03125,0.000030517578,2.0,0.0,0,0,90,0.0,0.00048828125,0.125,0.0,0.0,0.0,2.0,24.0
0,0,0.03125,0.000030517578,2.0,0.0,0,0,90,0.000030517578,0.0078125,0.125,0.0,0.0,2.941604e-39,2.0,24.0
0,0,0.0078125,0.000030517578,2.0,9.991702e-38,0,0,90,0.000030517578,0.0078125,0.125,9.991702e-38,1.1754944e-38,7.34684e-40,2.0,24.0
0,0,0.03125,0.000030517578,2.0,0.0,0,0,90,0.000030517578,0.0078125,0.125,0.0,0.0,-2.939452e-39,2.0,24.0
0,0,0.03125,0.000030517578,2.0,0.0,0,0,90,0.000030517578,0.0078125,0.125,0.0,7.34684e-40,0.0,2.0,24.0
0,0,0.03125,0.000030517578,2.0,-7.34684e-40,0,0,90,0.000030517578,0.0078125,0.125,-7.34684e-40,0.0,0.0,2.0,24.0
0,0,0.03125,0.000030517578,2.0,-9.403955e-38,0,0,90,0.000030517578,0.0078125,0.125,-9.403955e-38,0.0,2.221944e-39,2.0,24.0
0,0,0.03125,0.000030517578,2.0,7.34684e-40,0,0,90,0.000030517578,0.0078125,0.125,7.34684e-40,0.0,0.0,2.0,24.0
0,0,0.03125,0.000030517578,2.0,0.0,0,0,90,0.000030517578,0.0078125,0.125,0.0,0.0,0.0,2.0,24.0
0,0,0.03125,4.656613e-10,2.0,0.0,0,0,90,0.000030517578,0.000030517578,0.0078125,0.0,0.0,0.0,2.0,24.0
0,0,0.03125,0.000030517578,2.0,0.0,0,0,90,0.0,0.0078125,0.125,0.0,0.0,2.87e-42,2.25,24.0
0,0,0.03125,0.000030517578,2.0,0.0,0,0,90,0.000030517578,0.0078125,0.125,0.0,9.403955e-38,0.0,2.25,24.0
0,0,0.0078125,0.000030517578,2.0,0.0,0,0,90,0.0,0.0078125,0.125,0.0,0.0,0.0,2.0,24.0
0,0,0.0078125,0.000030517578,2.0,0.0,0,0,90,0.000030517578,0.0078125,0.125,0.0,7.34684e-40,0.0,2.0,24.0
0,0,0.03125,0.000030517578,2.0,0.0,0,0,90,0.000030517578,0.0078125,0.0078125,0.0,0.0,7.61e-43,2.0,24.0
0,0,0.03125,0.000030517578,2.0,-0.0,0,0,90,0.0,0.0078125,0.125,-0.0,7.17e-43,2.868e-42,2.0,24.0
0,0,0.03125,0.000030517578,2.0,7.34684e-40,0,0,90,0.000030517578,0.0078125,0.125,7.34684e-40,0.0,0.0,2.0,24.0
0,0,0.0078125,0.000030517578,2.0,0.0,90,90,90,0.000030517578,0.0078125,0.125,0.0,0.0,1.15512e-40,2.0,24.0
0,0,0.03125,0.000030517578,2.0,0.0,90,90,90,0.000030517578,0.0078125,0.125,0.0,0.0,1.473628e-39,2.0,24.0
0,0,0.03125,0.000030517578,2.0,0.0,90,90,90,0.000030517578,0.00048828125,0.125,0.0,1.469368e-39,0.0,2.0,24.0
0,0,0.0078125,0.000030517578,2.0,0.0,90,90,90,0.000030517578,0.0078125,0.125,0.0,0.0,2.33481e-39,2.0,24.0
0,0,0.03125,0.000030517578,2.0,0.0,90,90,90,0.0,0.125,0.125,0.0,0.0,3.407e-42,2.0,24.0
0,0,0.0078125,0.000030517578,2.0,0.0,90,90,90,0.0,0.125,0.125,0.0,0.0,1.2914e-41,2.0,24.0
0,0,0.03125,0.000030517578,2.0,0.0,90,90,90,0.0,0.125,0.125,0.0,1.1754944e-38,3.59e-43,2.0,24.0
0,0,0.03125,0.000030517578,2.0,2.2959e-41,90,90,90,0.0,0.125,0.125,2.2959e-41,0.0,-1.471878e-39,2.0,24.0
0,0,0.03125,0.000030517578,2.0,7.34684e-40,90,90,90,0.0,0.125,0.125,7.34684e-40,0.0,-1.469368e-39,2.0,24.0
0,0,0.03125,0.000030517578,2.0,0.0,90,90,90,0.000030517578,0.0078125,0.125,0.0,1.469368e-39,0.0,2.0,24.0
0,0,0.03125,0.000030517578,2.0,7.34684e-40,90,90,90,0.000030517578,0.0078125,0.125,7.34684e-40,1.469368e-39,0.0,2.0,24.0
0,0,0.03125,0.000030517578,2.0,0.0,90,90,90,0.000030517578,0.125,0.125,0.0,0.0,0.0,2.0,24.0
0,0,0.0078125,0.000030517578,2.0,0.0,90,90,90,0.000030517578,0.125,0.125,0.0,0.0,1.469368e-39,2.0,24.0
0,0,0.0078125,0.000030517578,2.0,-0.0,90,90,90,0.000030517578,0.125,0.125,-0.0,1.2489627e-38,1.148e-41,2.0,24.0
0,0,0.03125,0.000030517578,2.0,0.0,90,90,90,0.00048828125,0.1875,0.125,0.0,0.0,1.148e-41,2.25,24.0
0,0,0.03125,0.000030517578,2.0,0.0,90,90,90,0.0,0.125,0.125,0.0,0.0,0.0,2.25,24.0
0,0,0.03125,0.000030517578,2.0,9.403955e-38,90,90,90,0.0,0.125,0.125,9.403955e-38,9.403955e-38,0.0,2.0,24.0
0,0,0.03125,0.000030517578,2.0,3.1926e-41,90,90,90,0.000030517578,0.0078125,0.0078125,3.1926e-41,0.0,3.697095e-39,2.25,24.0
0,0,0.03125,0.000030517578,2.0,0.0,90,90,90,0.000030517578,0.125,0.125,0.0,7.34684e-40,3.59e-43,2.0,24.0
0,0,0.03125,0.000030517578,2.0,0.0,90,90,90,0.000030517578,0.0078125,0.125,0.0,1.0579449e-37,1.435e-42,2.0,24.0
0,0,0.03125,0.000030517578,2.0,0.0,90,90,90,0.000030517578,0.125,0.125,0.0,0.0,2.938736e-39,2.0,24.0
0,0,0.03125,0.000030517578,2.0,7.34684e-40,90,90,90,0.0,0.01171875,0.125,7.34684e-40,0.0,1.794e-42,2.0,24.0
0,0,0.03125,0.000030517578,2.0,0.0,90,90,90,0.000030517578,0.15625,0.125,0.0,9.403955e-38,-8.97e-43,2.0,24.0
0,0,0.03125,0.000030517578,2.0,-9.403955e-38,90,90,90,0.0,0.125,0.125,-9.403955e-38,0.0,6.097e-42,2.0,24.0
0,0,0.03125,0.000030517578,2.0,-0.0,90,90,90,0.000030517578,0.125,0.125,-0.0,1.1167196e-37,2.944474e-39,2.0,24.0
0,0,0.03125,0.000030517578,2.0,9.403955e-38,90,90,90,0.000030517578,0.125,0.125,9.403955e-38,9.403955e-38,2.943533e-39,2.0,24.0
0,0,0.03125,0.000030517578,2.0,0.0,90,90,90,0.00048828125,0.0078125,0.125,0.0,9.991702e-38,1.4887e-41,2.0,24.0
0,0,0.03125,0.000030517578,2.0,0.0,90,90,90,0.000030517578,0.0078125,0.125,0.0,0.0,0.0,2.0,24.0
0,0,0.03125,0.000030517578,2.0,0.0,90,90,90,0.000030517578,0.01171875,0.0078125,0.0,1.1657e-41,0.0,2.0,24.0
0,0,0.03125,0.000030517578,2.0,0.0,90,90,90,0.000030517578,0.009765625,0.125,0.0,7.34684e-40,5.963e-42,2.0,24.0
0,0,0.0078125,0.000030517578,2.0,0.0,90,90,90,0.000030517578,0.0078125,0.125,0.0,0.0,9.3226e-41,2.0,24.0
0,0,0.03125,0.000030517578,2.0,0.0,90,90,90,0.000030517578,0.125,0.125,0.0,1.1754944e-38,7.34863e-40,2.0,24.0
0,0,0.03125,0.000030517578,2.0,0.0,90,90,90,0.0,0.15625,0.125,0.0,7.34684e-40,6.097e-42,2.0,24.0
0,0,0.03125,0.000030517578,2.0,0.0,90,90,90,0.000030517578,0.125,0.125,0.0,0.0,2.2959e-41,2.0,24.0
0,0,0.03125,0.000030517578,2.0,-0.0,90,90,90,0.000030517578,0.0078125,0.0078125,-0.0,0.0,4.305e-42,2.0,24.0
0,0,0.03125,0.000030517578,2.0,0.0,90,90,90,0.000030517578,0.125,0.125,0.0,2.87e-42,-2.87e-42,2.0,24.0
0,0,0.03125,0.000030517578,2.0,0.0,90,90,90,0.0,0.0078125,0.0078125,0.0,0.0,-1.4349e-41,2.0,24.0
0,0,0.03125,0.000030517578,2.0,0.0,90,90,90,0.000030517578,0.0078125,0.00048828125,0.0,0.0,1.148e-41,2.0,24.0
0,0,0.03125,0.000030517578,2.0,0.0,90,90,90,0.000030517578,0.125,0.0078125,0.0,0.0,2.2959e-41,2.0,24.0
0,0,0.03125,0.000030517578,2.0,0.0,90,90,90,0.000030517578,0.125,0.0078125,0.0,1.83671e-40,-1.0045e-41,2.0,24.0
0,0,0.03125,0.000030517578,2.0,0.0,90,90,90,0.000030517578,0.125,0.0078125,0.0,0.0,3.0134e-41,2.0,24.0
0,0,0.03125,0.000030517578,2.0,0.0,90,90,90,0.00048828125,0.125,0.0078125,0.0,0.0,0.0,2.0,24.0
0,0,0.03125,0.000030517578,2.0,3.57e-43,90,90,90,0.000030517578,0.15625,0.125,3.57e-43,1.469368e-39,0.0,2.0,24.0
0,0,0.125,0.000030517578,2.0,0.0,90,90,90,0.000030517578,0.0078125,0.125,0.0,1.472238e-39,0.0,2.0,24.0
0,0,0.125,0.000030517578,2.0,0.0,90,90,90,0.0,0.125,0.0078125,0.0,0.0,9.2194e-41,2.0,24.0
0,0,0.125,0.000030517578,2.0,0.0,90,90,90,0.000030517578,0.009765625,0.0078125,0.0,0.0,0.0,2.25,24.0
0,0,0.125,0.000030517578,2.0,3.945e-42,90,90,90,0.0,0.0078125,0.0078125,3.945e-42,5.74e-42,0.0,2.0,24.0
0,0,0.125,0.000030517578,2.0,1.469368e-39,90,90,90,0.0,0.0078125,0.0078125,1.469368e-39,0.0,0.0,2.0,24.0
0,0,0.125,0.000030517578,2.0,0.0,90,90,90,0.0,0.125,0.0078125,0.0,0.0,2.2959e-41,2.0,24.0
0,0,0.125,0.000030517578,2.0,0.0,90,90,90,0.000030517578,0.125,0.0078125,0.0,1.1754944e-38,1.78e-43,2.0,24.0
0,0,0.03125,0.000030517578,2.0,-0.0,90,90,90,0.000030517578,0.0078125,0.125,-0.0,9.403955e-38,-2.940887e-39,2.0,28.0
0,0,0.125,0.000030517578,2.0,7.34684e-40,90,90,90,0.000030517578,0.125,0.125,7.34684e-40,2.1158898e-37,1.06185e-40,2.0,28.0
0,0,0.125,0.000030517578,2.0,0.0,90,90,90,0.00048828125,0.125,0.125,0.0,0.0,8.42302e-40,2.0,28.0
0,0,0.125,0.000030517578,2.0,1.469368e-39,90,90,90,0.000030517578,0.1875,0.125,1.469368e-39,0.0,3.675571e-39,2.0,28.0
0,0,0.125,0.000030517578,2.0,-0.0,90,90,90,0.000030517578,0.125,0.125,-0.0,9.403955e-38,-1.2196e-41,2.0,28.0
0,0,0.125,0.000030517578,2.0,7.34684e-40,90,90,90,0.000030517578,0.125,0.125,7.34684e-40,0.0,-7.1746e-41,2.0,28.0
0,0,0.125,0.000030517578,2.0,2.2959e-41,90,90,90,0.0,0.15625,0.125,2.2959e-41,1.469368e-39,1.20891e-40,2.25,28.0
0,0,0.125,0.000030517578,2.0,0.0,90,90,90,0.000030517578,0.125,0.125,0.0,0.0,1.2554e-41,2.0,28.0
0,0,0.125,0.000030517578,2.0,0.0,90,90,90,0.000030517578,0.1875,0.125,0.0,2.204052e-39,0.0,2.0039062,28.0
0,0,0.03125,0.000030517578,2.0,1.469368e-39,90,90,90,0.0,0.1875,0.125,1.469368e-39,1.469368e-39,2.216965e-39,2.0,28.0
0,0,0.125,0.000030517578,2.0,-2.2959e-41,90,90,90,0.000030517578,0.1875,0.125,-2.2959e-41,0.0,7.66252e-40,2.0,28.000488
0,0,0.03125,0.000030517578,2.0,-2.204052e-39,90,90,90,0.000030517578,0.125,0.125,-2.204052e-39,0.0,1.470444e-39,2.25,28.0
0,0,0.125,0.000030517578,2.0,0.0,90,90,90,0.000030517578,0.1875,0.125,0.0,0.0,0.0,2.0,28.0
0,0,0.125,0.000030517578,2.0,0.0,90,90,90,0.000030517578,0.15625,0.125,0.0,0.0,-7.891e-42,2.25,28.0
0,0,0.125,0.000030517578,2.0,7.34684e-40,90,90,90,0.0,0.1875,0.125,7.34684e-40,7.34684e-40,2.946627e-39,2.0,28.0
0,0,0.125,0.000030517578,2.0,0.0,90,90,90,0.000030517578,0.15625,0.125,0.0,1.90846e-40,2.3675e-41,2.0,28.0
0,0,0.0078125,0.000030517578,2.0,0.0,90,90,90,0.000030517578,0.15625,0.125,0.0,0.0,0.0,2.25,28.0
0,0,0.125,0.000030517578,2.0,0.1484375,90,90,90,0.000030517578,0.15625,0.125,0.1484375,1.469368e-39,8.31542e-40,2.0,28.0
0,0,0.125,0.000030517578,2.0,0.0,90,90,90,0.00048828125,0.125,0.0078125,0.0,0.0,-2.943039e-39,2.0,28.0
0,0,0.125,0.000030517578,2.0,-0.0,90,90,90,0.0,0.125,0.125,-0.0,0.0,2.2959e-41,2.0,28.0
0,0,0.03125,4.656613e-10,2.0,2.204052e-39,90,90,90,0.000030517578,0.125,0.00048828125,2.204052e-39,0.0,7.46162e-40,2.0,28.0
0,0,0.03125,0.000030517578,2.0,-0.0,90,90,90,0.0,0.15625,0.125,-0.0,0.0,2.8699e-41,2.0,28.0
0,0,0.125,0.000030517578,2.0,2.204052e-39,90,90,90,0.0,0.125,0.125,2.204052e-39,0.0,-3.791083e-39,2.0,28.0
0,0,0.125,0.000030517578,2.0,-0.140625,90,90,90,0.000030517578,0.125,0.125,-0.140625,7.34684e-40,2.227011e-39,2.0,28.0
0,0,0.03125,0.000030517578,2.0,-0.0,90,90,90,0.000030517578,0.125,0.125,-0.0,1.1754944e-38,1.076e-41,2.25,28.0
0,0,0.03125,0.000030517578,2.0,7.34684e-40,90,90,90,0.000030517578,0.125,0.125,7.34684e-40,0.0,0.0,2.0,28.0
0,0,0.125,0.000030517578,2.0,-2.204052e-39,90,90,90,0.00048828125,0.125,0.125,-2.204052e-39,0.0,3.697095e-39,2.0,28.0
0,0,0.03125,0.000030517578,2.0,0.0,90,90,90,0.0,0.125,0.125,0.0,0.0,0.010753631,2.0,28.0
0,0,0.03125,0.000030517578,2.0,2.2959e-41,90,90,90,0.000030517578,0.15625,0.125,2.2959e-41,1.2489627e-38,-0.0102767935,2.0,28.0
0,4,0.5,0.000030517578,2.0,-0.018554688,90,90,90,0.0,0.15625,0.125,-0.018554688,1.472238e-39,-0.0102767935,2.0,28.0
0,4,0.5,0.000030517578,2.0,-0.1484375,90,90,90,0.000030517578,0.15625,0.125,-0.1484375,0.1328125,-3.7308e-41,2.25,28.0
0,4,0.5,0.000030517578,2.0,-0.1484375,90,90,90,0.0,0.15625,0.125,-0.1484375,2.204052e-39,0.011322021,2.0,28.0
0,4,0.5,0.000030517578,2.0,-0.008300781,90,90,90,0.000030517578,0.15625,0.125,-0.008300781,1.2489627e-38,-4.416712e-39,2.25,28.0
0,4,0.5,0.000030517578,2.0,-0.265625,90,90,90,0.00048828125,0.15625,0.125,-0.265625,0.009277344,-0.011322021,2.0,28.0
0,4,0.5,0.000030517578,2.0,-0.125,90,90,90,0.000030517578,0.15625,0.125,-0.125,0.1484375,-0.011322021,2.0,28.0
0,4,0.5,0.000030517578,2.0,0.008300781,90,90,90,0.000030517578,0.15625,0.125,0.008300781,7.46163e-40,-0.009292603,2.0,28.0
0,4,0.5,0.000030517578,2.0,-0.12524414,90,90,90,0.0,0.15625,0.125,-0.12524414,0.1484375,-0.0078315735,2.25,28.0
0,4,0.5,0.000030517578,2.0,0.125,90,90,90,0.0,0.15625,0.125,0.125,7.34684e-40,0.010753631,2.0,28.0
0,4,0.5,0.000030517578,2.0,-0.1328125,90,90,90,0.000030517578,0.15625,0.125,-0.1328125,7.34684e-40,-2.944474e-39,2.25,28.0
0,4,0.5,0.000030517578,2.0,0.008300781,90,90,90,0.00048828125,0.15625,0.125,0.008300781,2.2959e-41,0.011322021,2.0,28.0
0,4,0.5,0.000030517578,2.0,0.0,90,90,90,0.0,0.15625,0.125,0.0,2.204052e-39,0.011322021,2.0,28.0
0,4,0.5,0.000030517578,2.0,0.13305664,90,90,90,0.000030517578,0.15625,0.125,0.13305664,0.1484375,-0.009292603,2.25,28.0
0,4,1.0,4.656613e-10,2.0,0.0078125,90,90,90,0.0,0.15625,0.125,0.0078125,0.25,0.011322021,2.0,28.0
0,4,0.5,0.000030517578,2.0,0.1484375,90,90,90,0.000030517578,0.15625,0.140625,0.1484375,0.0,-4.508547e-39,2.0,28.0
0,4,0.5,0.000030517578,2.0,-0.14086914,90,90,90,0.0,0.15625,0.125,-0.14086914,0.1484375,-0.011322021,2.25,28.0
0,4,0.5,0.000030517578,2.0,-0.1484375,90,90,90,0.0,0.15625,0.125,-0.1484375,7.34684e-40,-8.37998e-40,2.25,28.0
0,4,0.5,0.000030517578,2.0,-0.1328125,90,90,90,0.000030517578,0.15625,0.125,-0.1328125,9.29833e-40,-0.009292603,2.0,28.0
0,4,0.5,0.000030517578,2.0,-0.009277344,90,90,90,0.000030517578,0.15625,0.125,-0.009277344,0.265625,-0.011322021,2.25,28.0
0,4,0.5,0.000030517578,2.0,-0.009277344,90,90,90,0.000030517578,0.15625,0.125,-0.009277344,0.26977536,-1.472238e-39,2.0,28.0
0,4,0.5,0.000030517578,2.0,-0.1484375,90,90,90,0.000030517578,0.15625,0.125,-0.1484375,0.14868164,0.009292603,2.0,28.0
0,4,0.5,0.000030517578,2.0,-0.14868164,90,90,90,0.000030517578,0.15625,0.125,-0.14868164,0.28125,0.011322021,2.0,28.0
0,4,1.0,0.000030517578,2.0,0.1484375,90,90,90,0.000030517578,0.15625,0.125,0.1484375,0.25,3.791083e-39,2.0,28.0
0,4,1.0,0.000030517578,2.0,0.009277344,90,90,90,0.000030517578,0.15625,0.125,0.009277344,0.2658691,-0.011322021,2.0,28.0
0,4,0.5,0.000030517578,2.0,0.009277344,90,90,90,0.00048828125,0.15625,0.125,0.009277344,0.018585203,-0.011322021,2.0,28.0
0,4,1.0,0.000030517578,2.0,0.1328125,90,90,90,0.0,0.15625,0.125,0.1328125,0.28125,0.0,2.0,28.0
0,4,0.5,4.656613e-10,2.0,-0.009277344,90,90,90,0.0,0.15625,0.125,-0.009277344,0.1484375,-0.009292603,2.000061,28.0
0,4,0.5,0.000030517578,2.0,-0.1328125,90,90,90,0.00048828125,0.15625,0.125,-0.1328125,0.296875,0.011322021,2.0,28.0
0,4,0.5,0.000030517578,2.0,0.008300781,90,90,90,0.000030517578,0.15625,0.125,0.008300781,0.140625,-0.008815764,2.0,28.0
0,4,1.0,4.656613e-10,2.0,-0.009277344,90,90,90,0.000030517578,0.15625,0.125,-0.009277344,0.0,0.008369445,2.0,28.0
0,4,0.5,0.000030517578,2.0,0.1484375,90,90,90,0.000030517578,0.15625,0.125,0.1484375,2.227011e-39,-0.011322021,2.0,28.0
0,4,0.5,0.000030517578,2.0,-0.125,90,90,90,0.000030517578,0.15625,0.125,-0.125,0.0,0.009292603,2.0,28.0
0,4,0.5,4.6566134e-10,2.0,-0.296875,90,90,90,0.0,0.15625,0.125,-0.296875,7.34684e-40,0.011322021,2.0,28.0
0,4,0.5,0.000030517578,2.0,-0.14868164,90,90,90,0.0,0.15625,0.125,-0.14868164,0.265625,-0.008815765,2.0,28.0
0,4,0.5,0.000030517578,2.0,-0.1484375,90,90,90,0.000030517578,0.15625,0.125,-0.1484375,0.14868164,0.011322021,2.0000038,28.0
0,4,0.5,0.000030517578,2.0,0.1484375,90,90,90,0.00048828125,0.15625,0.125,0.1484375,7.34684e-40,-2.227011e-39,2.25,28.0
0,4,0.5,0.000030517578,2.0,-0.1484375,90,90,90,0.00048828125,0.15625,0.125,-0.1484375,9.29833e-40,0.009769439,2.0,28.0
0,4,0.5,0.000030517578,2.0,0.009277344,90,90,90,0.00048828125,0.15625,0.125,0.009277344,2.204052e-39,-0.008369445,2.0,28.0
0,4,0.5,0.000030517578,2.0,0.009277344,90,90,90,0.000030517578,0.15625,0.125,0.009277344,0.0,-0.052917477,2.0,28.0
0,4,1.0,0.000030517578,2.0,-0.12524414,90,90,90,0.000030517578,0.15625,0.125,-0.12524414,0.296875,-0.010337829,2.0,28.0
0,4,0.5,0.000030517578,2.0,-0.14868164,90,90,90,0.000030517578,0.15625,0.125,-0.14868164,0.296875,0.061035153,2.25,28.0
0,4,1.0,0.000030517578,2.0,-0.1328125,90,90,90,0.000030517578,0.15625,0.125,-0.1328125,0.265625,-0.009292602,2.0,28.0
0,4,0.5,0.000030517578,2.0,-0.1328125,90,90,90,0.0,0.15625,0.125,-0.1328125,0.28125,-0.061035153,2.25,28.0
0,4,0.5,0.000030517578,2.0,-7.34684e-40,90,90,90,0.000030517578,0.15625,0.125,-7.34684e-40,0.25,-0.008815765,2.0,28.0
0,4,0.5,0.000030517578,2.0,-0.14868164,90,90,90,0.000030517578,0.15625,0.140625,-0.14868164,0.1328125,-0.009292603,2.0,28.000488
64,4,1.0,0.000030517578,2.0,0.1328125,90,90,90,0.000030517578,0.1640625,0.125,0.1328125,0.018585205,0.011322021,2.0,28.0
1024,4,1.0,0.000030517578,2.0,0.1328125,90,90,90,0.000030517578,0.1640625,0.14111328,0.1328125,0.1484375,-0.010337829,2.25,28.0
1024,4,0.5,0.000030517578,2.0,-0.009277344,90,90,90,0.000030517578,0.1640625,0.125,-0.009277344,0.1408081,0.008369445,2.0,28.0
0,4,0.5,0.000030517578,2.0,-0.1484375,90,90,90,0.000030517578,0.1640625,0.125,-0.1484375,0.18115233,-0.011322021,2.0,28.0
0,4,0.5,0.000030517578,2.0,2.2959e-41,90,90,90,0.000030517578,0.1640625,0.125,2.2959e-41,2.204052e-39,-0.033355713,2.2509766,28.0
0,4,0.5,0.000030517578,2.0,-0.009292603,90,90,90,0.00048828125,0.15625,0.140625,-0.009292603,0.1328125,0.009292602,2.0,28.0
0,4,0.5,0.000030517578,2.0,-0.14868164,90,90,90,0.000030517578,0.15625,0.125,-0.14868164,0.3012695,-0.009769439,2.25,28.0
0,4,0.5,0.000030517578,2.0,0.14868164,90,90,90,0.000030517578,0.1640625,0.125,0.14868164,0.3012695,-0.009292603,2.25,28.0
0,4,0.5,0.000030517578,2.0,-0.125,90,90,90,0.000030517578,0.15625,0.125,-0.125,0.296875,-0.009292603,2.0,28.0
64,4,1.0,0.000030517578,2.0,-0.009292603,90,90,90,0.000030517578,0.1640625,0.125,-0.009292603,0.1484375,-0.011322021,2.0,28.0
0,4,0.5,0.000030517578,2.0,-0.1484375,90,90,90,0.00048828125,0.15625,0.125,-0.1484375,0.296875,-0.009292603,2.0,28.0
0,4,1.0,0.000030517636,2.0,-0.009277344,90,90,90,0.000030517578,0.15625,0.140625,-0.009277344,0.18115233,0.011322021,2.0,28.000002
0,4,0.5,0.000030517578,2.0,0.29736328,90,90,90,0.000030517578,0.15625,0.125,0.29736328,0.14868164,-0.011322021,2.0,28.0
0,4,0.5,0.000030517578,2.0,-0.1328125,90,90,90,0.00048828125,0.1640625,0.125,-0.1328125,0.15063475,0.011322021,2.0,28.0
0,4,0.5,0.000030517578,2.0,0.009292603,90,90,90,0.00048828125,0.15625,0.125,0.009292603,0.25,-0.008308411,2.0,28.0
0,4,1.0,0.00003053248,2.0,0.1484375,90,90,90,0.0,0.1640625,0.14257812,0.1484375,0.296875,0.0078315735,2.0,28.0
0,4,0.5,0.000030517578,2.0,0.018585205,90,90,90,0.000030517578,0.1640625,0.125,0.018585205,0.1484375,-0.011322021,2.0,28.0
0,4,0.5,0.000030517578,2.0,-0.14868164,90,90,90,0.000030517578,0.15625,0.140625,-0.14868164,0.296875,-0.011322021,2.0,28.0
0,4,0.5,0.000030517578,2.0,0.29736328,90,90,90,0.000030517578,0.15625,0.125,0.29736328,0.1328125,0.0078315735,2.25,28.0
0,4,0.5,0.000030517578,2.0,0.1484375,90,90,90,0.000030517578,0.1640625,0.125,0.1484375,0.296875,0.010814666,2.0,28.0
0,4,1.0,0.000030517578,2.0,-0.14086914,90,90,90,0.0,0.15625,0.125,-0.14086914,0.1484375,-0.008308411,2.0,28.0
64,4,1.0,4.656613e-10,2.0,-0.1328125,90,90,90,0.0,0.1640625,0.125,-0.1328125,0.14868164,0.0,2.0,28.0
0,4,0.5,0.000030517578,2.0,0.1484375,90,90,90,0.0,0.16455078,0.125,0.1484375,0.28125,-0.033355713,2.0,28.0
0,4,0.5,0.000030517578,2.0,-0.1484375,90,90,90,0.000030517578,0.1640625,0.140625,-0.1484375,0.13305664,-0.04719543,2.0,28.0
0,4,1.0,0.000030517578,2.0,-0.1484375,90,90,90,0.0,0.15625,0.140625,-0.1484375,0.009277344,-0.009769439,2.25,28.000004
0,4,0.5,4.656613e-10,2.0,0.13305664,90,90,90,0.000030517578,0.15625,0.125,0.13305664,0.009277344,0.056732174,2.0,28.0
32768,4,1.0,0.000030517578,2.0,-0.29736328,90,90,90,0.0,0.1640625,0.125,-0.29736328,0.009292603,0.0,2.0,28.0
32768,4,0.5,0.000030517578,2.0019531,0.009292603,90,90,90,0.000030517578,0.1640625,0.125,0.009292603,0.265625,0.0,2.0,28.0
32832,4,0.5,0.000030994648,2.000002,-0.14868164,90,90,90,0.0,0.15625,0.140625,-0.14868164,0.296875,-0.009292603,2.0,28.0
32768,4,0.5,4.656613e-10,2.0,-0.009292603,90,90,90,0.00048828125,0.1640625,0.140625,-0.009292603,0.1328125,0.0,2.25,28.0
32768,4,0.5,0.000030517578,2.0,0.0,90,90,90,0.00048828125,0.15625,0.125,0.0,0.296875,0.008815765,2.25,28.0
32768,4,0.5,0.00003051781,2.0019531,0.0,90,90,90,0.0,0.1640625,0.125,0.0,7.34684e-40,-0.009292602,2.0,28.0
32768,4,0.5,0.00048828125,2.0029297,-0.29736328,90,90,90,0.00048828125,0.15625,0.140625,-0.29736328,0.296875,-0.009292603,2.0,28.0
32768,4,0.5,0.000030517578,2.0000038,-0.140625,90,90,90,0.0,0.1640625,0.12524414,-0.140625,0.28125,-8.42302e-40,2.0,28.0
32768,4,0.5,0.000030517578,2.0,0.140625,90,90,90,0.000030517578,0.15625,0.125,0.140625,1.1777902e-38,7.54773e-40,2.0,28.0
40960,4,0.5,0.000030517578,2.000001,-0.0,90,90,90,0.000030517578,0.15625,0.140625,-0.0,0.1484375,0.0,2.0,28.0
40960,4,0.5,0.00003051851,2.0,1.486586e-39,90,90,90,0.000030517578,0.15625,0.12695312,1.486586e-39,1.1754944e-38,-1.472238e-39,2.0,28.0
40960,4,0.5,0.000030517578,2.0,2.204052e-39,90,90,90,0.00048828125,0.1640625,0.125,2.204052e-39,0.265625,0.013229369,2.0,28.0
40960,4,1.0,0.000030517578,2.0,0.0,90,90,90,0.000030517578,0.1640625,0.140625,0.0,0.1328125,0.0,2.25,28.0
40960,4,0.5,0.000030517578,2.0,7.34684e-40,90,90,90,0.000030517578,0.15625,0.140625,7.34684e-40,0.1484375,3.791083e-39,2.25,28.0
40960,4,0.5,0.000030517578,2.0,1.469368e-39,90,90,90,0.00048828125,0.1640625,0.125,1.469368e-39,2.953085e-39,0.009769439,2.0,28.0
40960,4,0.5,0.000030517578,2.0,0.125,90,90,90,0.000030517578,0.1640625,0.125,0.125,0.29736328,0.010337829,2.0,28.0
40960,4,1.0,0.000030517578,2.0,0.008300781,90,90,90,0.000030517578,0.1640625,0.125,0.008300781,0.14868164,0.009769439,2.0,28.0
40960,4,1.0,0.000030517636,2.0,0.0,90,90,90,0.00048828125,0.15625,0.140625,0.0,0.265625,-5.27193e-39,2.0,28.0
40960,4,1.0,0.000030517578,2.0,0.0,90,90,90,0.000030517578,0.15625,0.140625,0.0,0.296875,-0.011322021,2.0,28.0
40960,4,0.5,0.000030517578,2.0,1.3224311e-38,90,90,90,0.00048828125,0.1640625,0.125,1.3224311e-38,0.25,5.28054e-39,2.2500002,28.0
40960,4,0.5,0.000030517578,2.0,0.1484375,90,90,90,0.000030517578,0.1328125,0.125,0.1484375,0.13305664,-0.010337829,2.0,28.0
40960,4,0.5,0.000030755997,2.0,0.0,90,90,90,0.000030517578,0.15625,0.125,0.0,1.3420897e-38,0.011322021,2.25,28.0
40960,4,0.5,0.000030517578,2.0004883,-7.34684e-40,90,90,90,0.000030517578,0.1640625,0.140625,-7.34684e-40,0.1484375,-1.509546e-39,2.0,28.0
40960,4,1.0,0.000030517578,2.0000005,0.009292603,90,90,90,0.00048828125,0.1328125,0.125,0.009292603,1.3958995e-38,-3.119536e-39,2.0,28.0
40960,4,0.5,0.00003051764,2.0,0.1328125,90,90,90,0.000030517578,0.15625,0.140625,0.1328125,1.2489627e-38,-2.222705e-39,2.0,28.0
40960,4,0.5,0.000030517578,2.0,0.140625,90,90,90,0.0,0.1328125,0.125,0.140625,0.28125,-7.46163e-40,2.25,28.0
40960,4,0.5,0.000030517578,2.0000038,0.25012204,90,90,90,0.000030517578,0.1328125,0.125,0.25012204,0.13293457,0.011322021,2.0000002,28.0
40960,4,0.5,0.00003052503,2.0000086,0.0,90,90,90,0.000030517578,0.1328125,0.125,0.0,0.13488768,0.0102767935,2.0,28.0
40960,4,0.5,0.000030517578,2.0,-0.1484375,90,90,90,0.000030517578,0.15625,0.125,-0.1484375,0.26611328,0.011322021,2.0,28.0
40960,4,1.0,0.000030517578,2.0,0.1484375,90,90,90,0.000030517578,0.125,0.140625,0.1484375,2.2959e-41,0.0,2.0,28.0
40960,4,0.5,0.000030517578,2.0,-0.296875,90,90,90,0.000030517578,0.15625,0.125,-0.296875,0.0,5.28054e-39,2.0,28.0
40960,4,0.5,0.000030636787,2.0,-2.227011e-39,90,90,90,0.000030517578,0.1328125,0.125,-2.227011e-39,0.296875,-1.472238e-39,2.03125,28.0
40960,4,0.5,0.000030517578,2.0,0.14868164,90,90,90,0.000030517578,0.15625,0.125,0.14868164,0.14868164,4.554465e-39,2.0,28.0
32768,4,0.5,0.000030517578,2.0,0.1328125,90,90,90,0.00048828125,0.15625,0.125,0.1328125,0.265625,0.009292602,2.000122,28.0
32768,4,0.5,0.000030517578,2.0,-0.12524414,90,90,90,0.00048828125,0.15625,0.12506104,-0.12524414,0.1484375,-7.4616e-41,2.0,28.0
32768,4,1.0001221,0.00003052503,2.0,0.0,90,90,90,0.000030517578,0.1328125,0.140625,0.0,0.1484375,0.011322021,2.0000038,28.0
32768,4,0.5,0.000030517578,2.0,-7.57643e-40,90,90,90,0.0,0.1640625,0.125,-7.57643e-40,0.296875,-0.051010128,2.250001,28.0
32832,4,1.0,0.000030517578,2.0,-0.12530518,90,90,90,0.000030517578,0.125,0.140625,-0.12530518,0.296875,-7.46163e-40,2.0,28.0
32768,4,0.5,0.000030517578,2.0,0.009277344,90,90,90,0.00048828125,0.15625,0.125,0.009277344,0.009292603,0.008369445,2.0,28.0
32768,4,0.5,0.000030517578,2.0,-1.469368e-39,90,90,90,0.000030517578,0.15625,0.125,-1.469368e-39,0.1484375,-0.041473385,2.0,28.0
32768,4,0.5,0.000030517578,2.0,-2.2959e-41,90,90,90,0.000030517578,0.1328125,0.125,-2.2959e-41,0.28173828,-8.3226e-41,2.0,28.0
32768,4,1.0,0.000030517578,2.0,-0.1328125,90,90,90,0.000030517578,0.1640625,0.125,-0.1328125,0.265625,0.010337829,2.0,28.0
32768,4,0.5,0.000030517578,2.0,0.1484375,90,90,90,0.000030517578,0.1640625,0.140625,0.1484375,1.469368e-39,2.22701e-39,2.0,28.0
32768,4,0.5,0.000030517578,2.0,0.008300781,90,90,90,0.000030517578,0.15625,0.125,0.008300781,0.25,-0.009292603,2.0,28.0
32768,4,0.5,0.000030517578,2.0,-0.125,90,90,90,0.000030517578,0.15625,0.125,-0.125,0.296875,0.011322021,2.015625,28.0
32768,4,0.5,0.000030517578,2.0,-0.14868164,90,90,90,0.000030517578,0.15625,0.125,-0.14868164,7.34684e-40,0.009292602,2.000061,28.0
32768,4,0.5,0.000030517578,2.0,-0.1328125,90,90,90,0.000030517578,0.15625,0.125,-0.1328125,0.265625,-0.011322021,2.25,28.0
32768,4,0.5,0.000030517578,2.0,-0.265625,90,90,90,0.0,0.15625,0.14257812,-0.265625,0.1484375,0.033355713,2.031251,28.0
32768,4,0.5,0.000030517578,2.0,-0.26611328,90,90,90,0.000030517578,0.1640625,0.125,-0.26611328,0.018585205,0.009292602,2.0317383,28.0
32768,4,1.0,0.000030517578,2.0,-0.0078125,90,90,90,0.000030517578,0.15625,0.140625,-0.0078125,0.1484375,-0.011322021,2.25,28.0
32768,4,0.5,0.000030517578,2.0,-0.1484375,90,90,90,0.0,0.1640625,0.125,-0.1484375,0.296875,0.011322021,2.25,28.0
32768,4,0.5,0.000030517593,2.0006104,-7.34684e-40,90,90,90,0.000030517578,0.15625,0.125,-7.34684e-40,0.1328125,-0.015258788,2.0,28.0
32768,4,1.0,0.000030517578,2.0,-0.1328125,90,90,90,0.00048828125,0.1640625,0.140625,-0.1328125,0.14868164,-0.061035153,2.0,28.0
32768,4,0.5,0.000030517578,2.0,-0.140625,90,90,90,0.000030517578,0.1640625,0.140625,-0.140625,0.28125,-0.056732174,2.0,28.0
32768,4,1.0,0.000030517578,2.0,-7.34684e-40,90,90,90,0.0,0.1640625,0.125,-7.34684e-40,0.009277344,-0.03717041,2.25,28.0
32768,4,0.5,0.000030517578,2.0,-0.14868164,90,90,90,0.000030517578,0.1640625,0.125,-0.14868164,0.265625,-0.041473385,2.0,28.0
32768,4,0.5,0.000030521303,2.0,-0.13305664,90,90,90,0.000030517578,0.1640625,0.125,-0.13305664,0.296875,-0.011322021,2.000061,28.0
32768,4,1.0,0.000030517578,2.0,-0.14868164,90,90,90,0.00048828125,0.1640625,0.125,-0.14868164,0.14868164,-0.009292603,2.0,28.0
32769,4,0.5,0.000030517578,2.0,-2.2959e-41,90,90,90,0.0,0.1640625,0.14257812,-2.2959e-41,0.28125,-0.010337829,2.25,28.0
32768,4,0.5,0.000030517578,2.000001,-1.1777902e-38,90,90,90,0.000030517578,0.1640625,0.125,-1.1777902e-38,0.14868164,-3.073618e-39,2.25,28.0
32768,4,1.0,0.000030517578,2.0,0.14868164,90,90,90,0.00048828125,0.15625,0.125,0.14868164,2.2959e-41,-0.009292602,2.0,28.0
32768,4,1.0,4.656666e-10,2.0,0.0,90,90,90,0.000030517578,0.1640625,0.14160156,0.0,0.3662109,-0.009292603,2.25,28.0
32768,4,0.5,0.000030517578,2.0,-0.1484375,90,90,90,0.00048828125,0.1640625,0.140625,-0.1484375,0.13293457,7.46163e-40,2.0,28.0
32768,4,0.5001221,0.000030517578,2.0,-0.009277344,90,90,90,0.000030517578,0.1640625,0.125,-0.009277344,3.974754e-39,-0.008815765,2.000122,28.0
32768,4,0.5,0.000030517578,2.0,-0.25048828,90,90,90,0.000030517578,0.1640625,0.140625,-0.25048828,0.2860107,0.011322021,2.0,28.0
32768,4,1.0,0.000030517578,2.0,-0.25048828,90,90,90,0.000030517578,0.1640625,0.140625,-0.25048828,0.26977536,-0.0102767935,2.25,28.0
32768,4,0.5,0.000030517578,2.0,-0.1328125,90,90,90,0.000030517578,0.1640625,0.140625,-0.1328125,0.1484375,0.008308411,2.0,28.0
32768,4,0.5,0.000030517578,2.0,-0.25048828,90,90,90,0.000030517578,0.1640625,0.125,-0.25048828,0.1484375,-0.010337829,2.0,28.03125
32768,4,0.5,0.000030517578,2.0,-0.14868164,90,90,90,0.000030517578,0.1640625,0.14257812,-0.14868164,0.296875,-0.054824825,2.0,28.0
32768,4,1.0,0.000030517578,2.0,0.14868164,90,90,90,0.0,0.1640625,0.140625,0.14868164,0.009277344,-0.010753631,2.25,28.0
32768,4,0.5,0.000030517578,2.0,-0.008300781,90,90,90,0.000030517578,0.1640625,0.140625,-0.008300781,0.1328125,-1.509546e-39,2.25,28.0
32768,4,0.5,0.000030517578,2.0,0.0,90,90,90,0.000030517578,0.1640625,0.140625,0.0,0.14868164,-8.37998e-40,2.25,28.0
32768,4,1.0,0.000030517578,2.0,-0.1328125,90,90,90,0.000030517578,0.1328125,0.125,-0.1328125,0.1328125,0.0,2.25,28.0
32768,4,0.5,0.000030517578,2.0000076,0.14868164,90,90,90,0.000030517578,0.15625,0.125,0.14868164,1.469368e-39,-0.008815764,2.0,28.0
32776,4,0.5,0.000038146973,2.0,0.14868164,90,90,90,0.000030517578,0.15625,0.125,0.14868164,1.469368e-39,0.007892608,2.25,28.0
32768,4,1.0,0.000030517578,2.0,0.14086914,90,90,90,0.0,0.1328125,0.140625,0.14086914,0.25012204,0.011322021,2.2539062,28.0
32768,4,1.0,0.000030517578,2.0,-0.1484375,90,90,90,0.00048828125,0.15625,0.125,-0.1484375,0.3012695,-0.009292603,2.2500076,28.0
32768,4,0.5,0.000030517578,2.0,-0.13305664,90,90,90,0.000030517578,0.15625,0.125,-0.13305664,0.1484375,-0.009292602,2.25,28.0
32832,4,0.5,0.000030517578,2.0004883,-0.009277344,90,90,90,0.000030517578,0.15625,0.140625,-0.009277344,0.1484375,0.010337829,2.0,28.0
32768,4,0.5,0.000030517578,2.0,-0.009292603,90,90,90,0.00048828125,0.15625,0.125,-0.009292603,0.1484375,-0.011322021,2.2504883,28.0
32768,4,0.5,0.000030517578,2.0,-0.008308411,90,90,90,0.0,0.1640625,0.125,-0.008308411,0.14868164,-0.0102767935,2.0,28.0
32768,4,1.0,0.000030517578,2.0,0.1328125,90,90,90,0.00048828125,0.15625,0.125,0.1328125,0.3012695,0.007892608,2.0,28.0
32768,4,1.0,0.000030517578,2.0,-0.1484375,90,90,90,0.000030517578,0.1640625,0.125,-0.1484375,0.3012695,0.009292602,2.25,28.0
32768,4,1.0,0.000030517578,2.0,-0.14868164,90,90,90,0.00048828125,0.15625,0.125,-0.14868164,0.18115233,0.0078315735,2.0,28.0
32768,4,0.5,0.000030517578,2.0,-0.1328125,90,90,90,0.000030517578,0.1640625,0.140625,-0.1328125,0.009277344,-0.022644041,2.25,28.0
32768,4,0.5,0.00003051758,2.0,0.29736328,90,90,90,0.000030517578,0.15625,0.125,0.29736328,1.492327e-39,2.8699e-41,2.0,28.0
32768,4,0.5,0.000030517578,2.0000305,-0.009292603,90,90,90,0.000030517578,0.1640625,0.140625,-0.009292603,0.29736328,-1.509546e-39,2.0,28.0
32768,4,0.5,0.000030517578,2.0,0.13305664,90,90,90,0.000030517578,0.15625,0.140625,0.13305664,0.296875,-0.011322021,2.0,28.0
32768,4,1.0,0.000030517578,2.0,0.14868164,90,90,90,0.000030517578,0.15625,0.140625,0.14868164,0.018554688,-0.0078315735,2.0000916,28.007812
32768,4,1.0,0.000030517578,2.0,0.14868164,90,90,90,0.00048828125,0.15625,0.140625,0.14868164,0.296875,0.010814666,2.0,28.0
32768,4,0.5,0.000030517578,2.0,-0.296875,90,90,90,0.000030517578,0.1640625,0.125,-0.296875,7.34684e-40,-8.00691e-40,2.250002,28.0
32770,4,1.0,0.000030517578,2.0,0.13305664,90,90,90,0.000030517578,0.1640625,0.125,0.13305664,0.296875,0.013229369,2.25,28.0
32769,4,0.5,0.000030517578,2.0,0.28125,90,90,90,0.000030517578,0.15625,0.140625,0.28125,7.34684e-40,-0.011322021,2.0,28.0
32768,4,0.5,0.000030517578,2.0,0.13305664,90,90,90,0.00048828125,0.15625,0.125,0.13305664,0.1328125,0.033355713,2.2500076,28.0
32768,4,0.5,0.000030517578,2.0,-0.25,90,90,90,0.000030517578,0.1640625,0.140625,-0.25,0.1328125,0.009769439,2.25,28.0
32768,4,1.0,0.00003051851,2.0,-0.25048828,90,90,90,0.00048828125,0.15625,0.125,-0.25048828,0.140625,-0.056732174,2.25,28.0
32768,4,0.5,0.000030517578,2.0,0.1484375,90,90,90,0.000030517578,0.15625,0.125,0.1484375,2.2959e-41,0.117279045,2.015625,28.0
32768,4,1.0,0.000030517578,2.0,0.296875,90,90,90,0.000030517578,0.15625,0.140625,0.296875,2.204052e-39,-0.011322021,2.0,28.0
32768,4,1.0,0.000030517578,2.0,0.28125,90,90,90,0.000030517578,0.15625,0.125,0.28125,0.14868164,3.791083e-39,2.0,28.0
32768,4,1.0,0.000030521303,2.0,-2.2959e-41,90,90,90,0.0,0.15625,0.125,-2.2959e-41,0.1484375,-3.84561e-39,2.25,28.0
32768,4,1.0,0.000030517695,2.0,-2.204052e-39,90,90,90,0.000030517578,0.15625,0.140625,-2.204052e-39,0.296875,-0.015258788,2.0,28.0
32768,4,0.5,0.000061035156,2.0,-0.0,90,90,90,0.000030517578,0.1640625,0.140625,-0.0,0.1484375,-6.715469e-39,2.0,28.0
32768,4,1.0,4.656613e-10,2.0,-0.29736328,90,90,90,0.00048828125,0.15625,0.125,-0.29736328,2.2959e-41,-1.5596249e-38,2.0,28.0
32768,4,1.0,4.656613e-10,2.0,1.492327e-39,90,90,90,0.0,0.15625,0.125,1.492327e-39,0.1484375,-0.009292602,2.25,28.0
32768,4,1.0,0.000030517578,2.0,2.227011e-39,90,90,90,0.00048828125,0.15625,0.14111328,2.227011e-39,0.1484375,-1.509546e-39,2.0,28.0
32768,4,1.0,0.00003051944,2.0,2.2959e-41,90,90,90,0.00048828125,0.15625,0.125,2.2959e-41,0.3012695,-0.011322021,2.2539062,28.0
32768,4,1.0,9.313226e-10,2.0,-0.14868164,90,90,90,0.000030517578,0.1640625,0.140625,-0.14868164,0.1484375,3.791083e-39,2.0,28.0
32768,4,1.0,0.000030517578,2.0,-1.3958995e-38,90,90,90,0.000030517578,0.15625,0.125,-1.3958995e-38,1.469368e-39,-3.073618e-39,2.0,28.0
32768,4,1.0,0.000030517578,2.0,-2.2959e-41,90,90,90,0.000030517578,0.15625,0.12506104,-2.2959e-41,1.1754944e-38,0.011322021,2.0,28.0
32768,4,0.5,0.000030517578,2.0,0.26611328,90,90,90,0.000030517578,0.15625,0.125,0.26611328,0.0,0.009292602,2.0000005,28.0
32772,4,0.5,0.000030517578,2.0,0.1484375,90,90,90,0.000030517578,0.15625,0.125,0.1484375,0.296875,-0.008815764,2.0,28.0
32768,4,1.0,0.000030517578,2.0004883,7.34684e-40,90,90,90,0.000030517578,0.1328125,0.125,7.34684e-40,7.57643e-40,-1.518156e-39,2.25,28.0
32768,4,1.0,0.000030517578,2.0,0.14868164,90,90,90,0.000030517578,0.15625,0.140625,0.14868164,0.009292602,0.011322021,2.25,28.000488
0,4,0.50024414,0.00003051781,2.0,-0.00831604,90,90,90,0.000030517578,0.15625,0.14086914,-0.00831604,0.29736328,-0.008815765,2.250001,28.0
0,4,1.0,0.000030517578,2.0000076,-7.34684e-40,90,90,90,0.000030517578,0.15625,0.125,-7.34684e-40,0.26977536,-2.944474e-39,2.0,28.0
0,4,0.5,0.000030518044,2.0,-0.1328125,90,90,90,0.00048828125,0.15625,0.125,-0.1328125,1.469368e-39,0.04719543,2.0,28.03125
16,4,0.5,4.656613e-10,2.0,0.009292603,90,90,90,0.000030517578,0.1328125,0.140625,0.009292603,2.204052e-39,-5.28054e-39,2.25,28.0
0,4,1.0,0.000030517578,2.0000005,-0.125,90,90,90,0.000030517578,0.15625,0.140625,-0.125,0.296875,-2.227011e-39,2.0019531,28.0
0,4,0.5,0.000030517578,2.0,-0.14868164,90,90,90,0.000030517578,0.1328125,0.125,-0.14868164,0.296875,-0.0102767935,2.0,28.0
0,4,1.0,0.000030517578,2.0,0.1328125,90,90,90,0.0,0.1328125,0.140625,0.1328125,0.14868164,0.011322021,2.0,28.0
0,4,0.5,0.000030517578,2.0,0.1328125,90,90,90,0.000030517578,0.1328125,0.125,0.1328125,0.018585203,-0.011322021,2.0,28.0
0,4,0.5,0.000030517578,2.0000305,1.469368e-39,90,90,90,0.00048828125,0.1328125,0.140625,1.469368e-39,0.1328125,4.508547e-39,2.250061,28.0
32768,4,0.5,0.000030517578,2.0,-0.14868164,90,90,90,0.0,0.15625,0.125,-0.14868164,0.1484375,0.009769439,2.0000086,28.0
32768,4,0.5,0.000030517578,2.0,-2.204052e-39,90,90,90,0.0,0.1328125,0.125,-2.204052e-39,0.29736328,0.011322021,2.0,28.0
32768,4,1.0,0.000030517578,2.0,-0.0,90,90,90,0.000030517578,0.1328125,0.140625,-0.0,0.13305664,0.009292603,2.0,28.0
32896,4,0.5,0.00003051851,2.0,1.492327e-39,90,90,90,0.000030517578,0.15625,0.125,1.492327e-39,0.28125,2.23562e-39,2.0,28.0
32768,4,1.0,0.000030517578,2.0,0.017578125,90,90,90,0.000030517578,0.1328125,0.140625,0.017578125,0.28125,-0.010337829,2.0,28.0
32768,4,0.5,0.000030517578,2.0,0.1484375,90,90,90,0.000030517578,0.1328125,0.140625,0.1484375,0.296875,-0.011322021,2.0158691,28.0
32768,4,1.0,0.000030517578,2.0,-0.125,90,90,90,0.00048828125,0.1328125,0.14257812,-0.125,0.018554688,-0.011322021,2.0,28.0
32768,4,0.5,0.000030517578,2.0,0.265625,90,90,90,0.000030517578,0.13293457,0.140625,0.265625,0.1328125,0.0078315735,2.0,28.0
32768,4,1.0,0.000030517578,2.0,0.14868164,90,90,90,0.0,0.1328125,0.125,0.14868164,1.469368e-39,-0.008369445,2.0000153,28.0
32768,4,0.5,4.656613e-10,2.0,-2.227011e-39,90,90,90,0.000030517578,0.15625,0.140625,-2.227011e-39,0.2540283,0.009292603,2.0,28.0
32768,4,0.5,0.000030517578,2.0,-1.492327e-39,90,90,90,0.00048828125,0.1328125,0.125,-1.492327e-39,0.14868164,-5.27193e-39,2.25,28.0
32768,4,1.0,0.000030577183,2.0,0.009292603,90,90,90,0.000030517578,0.15625,0.125,0.009292603,0.1484375,-0.033355713,2.0,28.0
32768,4,1.0,0.000030517578,2.0,2.204052e-39,90,90,90,0.0,0.1328125,0.125,2.204052e-39,7.34684e-40,-0.009292602,2.0,28.0
32768,4,0.5,0.000030517578,2.0,0.1484375,90,90,90,0.000030517578,0.1640625,0.125,0.1484375,1.469368e-39,-0.011322021,2.0,28.000977
32896,4,0.5,0.000030517578,2.0,-0.14086914,90,90,90,0.00048828125,0.1328125,0.125,-0.14086914,0.1484375,0.011322021,2.0,28.0
32768,4,1.0,0.000030547846,2.0,-0.14868164,90,90,90,0.000030517578,0.1328125,0.125,-0.14868164,1.492327e-39,-0.010337829,2.0,28.0
32768,4,1.0004883,0.000030517578,2.0,-0.125,90,90,90,0.00048828125,0.1328125,0.125,-0.125,0.265625,-0.010337829,2.0,28.0
32772,4,1.0,0.000030517578,2.000002,-0.125,90,90,90,0.00048828125,0.15625,0.125,-0.125,0.1484375,0.061035153,2.0,28.0
32768,4,1.0,0.000030517578,2.0,-0.1328125,90,90,90,0.0,0.1328125,0.125,-0.1328125,0.18115233,0.009769439,2.0,28.0
32768,4,1.0,0.000030517578,2.0,-0.13305664,90,90,90,0.00048828125,0.1640625,0.125,-0.13305664,2.204052e-39,0.008369445,2.0,28.0
32768,4,1.0,0.000030517578,2.0,-0.0,90,90,90,0.000030517578,0.1328125,0.140625,-0.0,0.296875,-0.08676147,2.25,28.0
32768,4,0.5,0.000030517578,2.0,0.14868164,90,90,90,0.0,0.1328125,0.125,0.14868164,7.34684e-40,-0.011322021,2.000001,28.0
32768,4,1.0,0.000030517578,2.0,-0.1484375,90,90,90,0.0,0.15625,0.125,-0.1484375,0.1484375,-0.009292603,2.0,28.000488
32769,4,0.5,0.000030517578,2.0,0.14868164,90,90,90,0.000030517578,0.1328125,0.125,0.14868164,0.28552243,-0.052917477,2.25,28.0
32768,4,0.5,0.000030517578,2.0,-0.009292603,90,90,90,0.000030517578,0.1640625,0.14257812,-0.009292603,0.018585205,-2.227011e-39,2.25,28.0
32768,4,0.5,4.6571813e-10,2.0,-0.29736328,90,90,90,0.000030517578,0.1328125,0.125,-0.29736328,0.3662109,-0.011322021,2.000001,28.0
32768,4,0.5,0.000030517578,2.0,-1.469368e-39,90,90,90,0.000030517578,0.15625,0.140625,-1.469368e-39,1.3224311e-38,-0.011322021,2.0,28.000061
32768,4,1.0,0.00003054738,2.0,-0.25,90,90,90,0.000030517578,0.15625,0.125,-0.25,0.265625,0.010337829,2.0,28.0
32768,4,0.5,0.000030517578,2.0,-0.14086914,90,90,90,0.0,0.15625,0.125,-0.14086914,0.0,-3.791083e-39,2.0,28.0
32768,4,1.0,0.000030517578,2.0,0.12524414,90,90,90,0.0,0.15625,0.125,0.12524414,0.265625,-0.011322021,2.0,28.0
32768,4,0.5,0.000030517578,2.0,0.13305664,90,90,90,0.000030517578,0.15625,0.140625,0.13305664,0.14868164,-0.010337829,2.0,28.0
32768,4,0.5,0.000030517578,2.0,-0.1484375,90,90,90,0.000030517578,0.15625,0.125,-0.1484375,0.29736328,-0.011322021,2.0000076,28.0
32768,4,1.0,0.000030517578,2.0,-7.34684e-40,90,90,90,0.0,0.15625,0.125,-7.34684e-40,7.57643e-40,0.009292602,2.25,28.000488
32768,4,1.0,0.000030517578,2.0,-0.0,90,90,90,0.000030517578,0.1328125,0.125,-0.0,0.28173828,3.7308e-41,2.0,28.0
32768,4,1.0,0.000030517578,2.0,3.128145e-39,90,90,90,0.000030517578,0.1640625,0.125,3.128145e-39,1.469368e-39,8.44456e-40,2.25,28.0
32768,4,0.5,0.000030517578,2.000001,7.34684e-40,90,90,90,0.00048828125,0.125,0.125,7.34684e-40,2.204052e-39,6.719774e-39,2.0,28.0
32768,4,1.0,0.000030517578,2.0,2.204052e-39,90,90,90,0.000030517578,0.15625,0.125,2.204052e-39,1.3958995e-38,4.515005e-39,2.0,28.0
32768,4,1.0,0.000030636787,2.0,7.34684e-40,90,90,90,0.00048828125,0.15625,0.125,7.34684e-40,2.389875e-39,1.500935e-39,2.0,28.0
32768,4,1.0,0.000030517578,2.0000076,2.2959e-41,90,90,90,0.00048828125,0.1953125,0.125,2.2959e-41,0.0,1.24837e-40,2.25,28.0
32768,4,1.0,0.000030517578,2.0,1.469368e-39,90,90,90,0.000030517578,0.1328125,0.125,1.469368e-39,1.1754944e-38,0.0,2.25,28.0
32768,4,1.0,0.000030517578,2.0,0.0,90,90,90,0.000030517578,0.1328125,0.125,0.0,7.34684e-40,4.416712e-39,2.0,28.0
32768,4,1.0,0.000030517578,2.0,7.34684e-40,90,90,90,0.000030517578,0.15625,0.25097656,7.34684e-40,1.3224311e-38,2.6545e-41,2.25,28.0
32768,4,0.5,0.000030517578,2.0,9.991702e-38,90,90,90,0.00048828125,0.15625,0.25,9.991702e-38,1.0579449e-37,-5.262424e-39,2.25,28.0
49152,4,1.0,0.00003051781,2.0,-9.991702e-38,90,90,90,0.000030517578,0.056640625,0.12695312,-9.991702e-38,2.2334393e-37,-1.02867e-40,2.0,28.000488
49152,4,0.5,0.000030517578,2.0,-1.0579449e-37,90,90,90,0.000030517578,0.010253906,0.125,-1.0579449e-37,9.422322e-38,-2.310863e-39,2.0,28.0
49156,4,1.0,0.000030517578,2.0,-1.1185563e-37,90,90,90,0.00048828125,0.1640625,0.25,-1.1185563e-37,1.3224311e-38,-5.176642e-39,2.25,28.0
49152,4,0.5,0.000030517578,2.0,-9.403955e-38,90,90,90,0.000030517578,0.62597656,0.14257812,-9.403955e-38,0.1328125,-8.39522e-40,2.0,28.0
49152,4,1.0,0.000030517578,2.0,0.0,90,90,90,0.00048828125,0.03125,0.125,0.0,1.0579449e-37,-1.16228e-40,2.0,28.0
49152,4,0.5,0.000030517578,2.0,-1.2489627e-38,90,90,90,0.000030517578,0.2265625,0.25,-1.2489627e-38,1.0597959e-37,-3.702252e-39,2.0,28.0
49152,4,1.0,0.00003051851,2.0,-1.0579449e-37,90,90,90,0.00048828125,0.65625,0.125,-1.0579449e-37,1.1756951e-37,-1.579408e-39,2.25,28.0
49152,4,1.0,0.000030517578,2.0024414,-1.0010069e-37,90,90,90,0.000030517578,0.75,0.125,-1.0010069e-37,1.1185563e-37,-7.448449e-39,2.25,28.0
49152,4,1.0,0.000030517578,2.0,1.469368e-39,90,90,90,0.000030517578,0.5,0.12695312,1.469368e-39,2.0020138e-37,-1.509546e-39,2.0,28.000488
49152,4,1.0,0.000030517578,2.0,-1.8844644e-37,90,90,90,0.000030517578,0.2265625,0.25,-1.8844644e-37,1.176391e-38,2.9390226e-38,2.25,28.0
49184,4,0.5,0.000030517578,2.0,-1.1167196e-37,90,90,90,0.000030517578,0.21875,0.125,-1.1167196e-37,1.1777902e-38,-4.442361e-39,2.25,28.0
49152,4,1.0,0.000030518044,2.0002747,-1.0597816e-37,90,90,90,0.00048828125,0.1875,0.125,-1.0597816e-37,9.991702e-38,-7.68584e-40,2.0,28.0
49152,4,0.5,0.000030517578,2.0,-9.991702e-38,90,90,90,0.000030517578,0.15625,0.125,-9.991702e-38,9.991702e-38,-5.298656e-39,2.0,28.0
49152,4,0.5,0.000030517578,2.0,-2.2959e-41,90,90,90,0.000030517578,0.1328125,0.125,-2.2959e-41,1.0597816e-37,0.0,2.0000002,28.0
49152,4,0.5,0.000030517578,2.0,-1.3981954e-38,90,90,90,0.000030517578,0.1328125,0.25195312,-1.3981954e-38,1.469368e-39,-2.222706e-39,2.2500038,28.0
49152,4,0.5,0.000030517578,2.0,-1.492327e-39,90,90,90,0.0,0.21875,0.125,-1.492327e-39,7.57643e-40,-9.581024e-39,2.25,28.0
49152,4,0.5,0.000030517578,2.0,-0.0,90,90,90,0.000030517578,0.125,0.25390625,-0.0,1.1185563e-37,-2.944474e-39,2.0,28.0
49152,4,0.5,0.000030517578,2.0,1.1167196e-37,90,90,90,0.0,0.1640625,0.125,1.1167196e-37,0.0,4.572977e-38,2.0000076,28.0
49154,4,0.5,0.000030517578,2.0000005,-0.26611328,90,90,90,0.000030517578,0.1328125,0.125,-0.26611328,1.2489627e-38,8.14179e-39,2.0,28.0
49152,4,0.5,0.000030517578,2.0,-7.57643e-40,90,90,90,0.000030517578,0.1640625,0.14257812,-7.57643e-40,7.34684e-40,0.009292602,2.0000153,28.0
49152,4,0.5001221,0.000030517578,2.0,-2.2959e-41,90,90,90,0.000030517578,0.1953125,0.140625,-2.2959e-41,2.227011e-39,3.7014e-39,2.25,28.0
49216,4,0.5,0.000030517636,2.000002,-0.14868164,90,90,90,0.0,0.1640625,0.140625,-0.14868164,1.5729697e-38,3.841305e-39,2.0,28.0
49152,4,0.5,0.000030517578,2.0,-0.14868164,90,90,90,0.000030517578,0.15625,0.140625,-0.14868164,0.29736328,0.061035153,2.0,28.0
49408,4,0.5,0.000030517578,2.0,-0.1328125,90,90,90,0.000030517578,0.15631104,0.140625,-0.1328125,0.25,0.043380734,2.0000005,28.007812
49152,4,0.5,0.000030517578,2.0,-0.1484375,90,90,90,0.000030517578,0.15625,0.125,-0.1484375,0.296875,0.010337829,2.000001,28.0
49152,4,0.5,0.00003054738,2.0,-0.296875,90,90,90,0.000030517578,0.15637207,0.140625,-0.296875,0.13293457,0.0,2.25,28.0
49154,4,0.5,0.000030517578,2.0,-0.29736328,90,90,90,0.000030517578,0.15625,0.125,-0.29736328,0.1328125,0.011322021,2.0,28.0
49152,4,0.5,0.000030517578,2.0,-0.18115233,90,90,90,0.000030517578,0.15625,0.125,-0.18115233,0.25,0.011322021,2.25,28.03125
49216,4,0.5,0.000030517578,2.0,-0.14868163,90,90,90,0.000030517578,0.15631104,0.125,-0.14868163,0.296875,0.061035153,2.25,28.0
49152,4,0.5,0.000030517578,2.0,-0.009292603,90,90,90,0.0,0.15625,0.14257812,-0.009292603,0.14868163,0.011322021,2.25,28.0
49152,4,0.5,0.000030517578,2.0,-0.018554688,90,90,90,0.000030517578,0.15625,0.140625,-0.018554688,0.13305664,0.009292603,2.0,28.0
49152,4,0.5,0.000030517578,2.0,-0.14868164,90,90,90,0.000030517578,0.15631104,0.14257812,-0.14868164,0.25061035,0.030517576,2.25,28.0
49152,4,0.5001221,4.656613e-10,2.0,-0.13305664,90,90,90,0.000038146973,0.15625,0.125,-0.13305664,0.14868164,0.015258788,2.250002,28.0
49152,4,0.5,0.000030517578,2.0000005,-0.1484375,90,90,90,0.000030517578,0.15625,0.125,-0.1484375,0.1328125,0.009292603,2.2500615,28.0
49152,4,0.5,0.000030577183,2.0,-0.29736328,90,90,90,0.000030517578,0.15625,0.140625,-0.29736328,0.1484375,0.022644041,2.0,28.0
49216,4,0.5,0.00012207124,2.0,-0.011322021,90,90,90,0.000061035156,0.1640625,0.140625,-0.011322021,0.26586914,0.033355713,2.0,28.0
49152,4,0.5,0.00012207031,2.0,-0.14868164,90,90,90,0.000030517578,0.15625,0.125,-0.14868164,0.1328125,0.011322021,2.0,28.0
49152,4,0.5,0.000030517578,2.0,-0.14868164,90,90,90,0.000030517578,0.15625,0.14257812,-0.14868164,0.1328125,0.015258788,2.0000305,28.0
49152,4,0.5,0.000032424927,2.0,-0.1484375,90,90,90,0.0,0.15625,0.14257812,-0.1484375,0.29736325,-0.061035153,2.25,28.0
49152,4,0.5,0.0001373291,2.0,-0.18115233,90,90,90,0.0,0.15625,0.140625,-0.18115233,0.13293457,0.011322021,2.000002,28.0
49152,4,0.5,0.000030517578,2.0,-0.1484375,90,90,90,0.000030517578,0.15625,0.14257812,-0.1484375,0.1328125,0.011322021,2.25,28.03125
49152,4,0.50024414,0.000031471252,2.0,-0.18115233,90,90,90,0.000030517578,0.15625,0.125,-0.18115233,0.14868164,0.0,2.0000002,28.0
49152,4,0.50024414,0.00003051851,2.0,-0.14868163,90,90,90,0.000030517578,0.15625,0.14257812,-0.14868163,0.1328125,0.061035153,2.0,28.007812
49152,4,0.5,0.000030577183,2.0,-0.14868164,90,90,90,0.0,0.15649414,0.125,-0.14868164,0.296875,0.0,2.25,28.0
49152,4,0.5,0.000030517578,2.0,-0.009277344,90,90,90,0.000030517578,0.15625,0.14257812,-0.009277344,0.29736328,0.0,2.0,28.0
49408,4,0.5,0.000030517578,2.0,-0.009292603,90,90,90,0.000061035156,0.1640625,0.125,-0.009292603,0.1328125,0.0,2.25,28.0
49152,4,0.5,0.000030517578,2.0,-0.14868164,90,90,90,0.000030517578,0.15625,0.14257812,-0.14868164,0.14868164,0.015258788,2.0000014,28.03125
49152,4,0.5,0.00003053248,2.0,-0.18115233,90,90,90,0.000030517578,0.16412354,0.14257812,-0.18115233,0.13293457,0.0,2.0,28.0
49152,4,0.5,0.000030517578,2.0000153,-0.14868164,90,90,90,0.000030517578,0.15625,0.14257812,-0.14868164,0.29736328,0.011322021,2.0,28.0
49152,4,0.5,0.00012207031,2.000061,-0.296875,90,90,90,0.000030517578,0.15625,0.125,-0.296875,0.1328125,0.0,2.0,28.0
49152,4,0.5,0.000030517607,2.0000038,-0.14868164,90,90,90,0.0,0.15625,0.125,-0.14868164,0.29736328,-0.011322021,2.25,28.0
49152,4,0.5,0.000030577183,2.0,-0.14868164,90,90,90,0.000030517578,0.15625,0.125,-0.14868164,0.14868163,0.0,2.0029306,28.03125
49408,4,0.5,4.656613e-10,2.0,-0.14868164,90,90,90,0.0,0.15673828,0.125,-0.14868164,0.1328125,0.0,2.2500076,28.0
49152,4,0.50024414,0.00003053248,2.0,-0.29736328,90,90,90,0.000030517578,0.1640625,0.14257812,-0.29736328,0.1484375,-0.122070305,2.0000305,28.0
49152,4,0.5,0.000030521303,2.0,-0.14868163,90,90,90,0.000030517578,0.15625,0.125,-0.14868163,0.14868164,0.011322021,2.25,28.03125
49152,4,0.50024414,0.000030517578,2.0,-0.14868164,90,90,90,0.000030517578,0.1640625,0.14257812,-0.14868164,0.296875,-0.011322021,2.0,28.0
49216,4,0.5,0.00003051851,2.000001,-0.14868164,90,90,90,0.000061035156,0.15625,0.125,-0.14868164,0.13293457,0.011322021,2.25,28.000004
49152,4,0.5,0.000030517578,2.0,-0.3012695,90,90,90,0.000030517578,0.16455078,0.14257812,-0.3012695,0.3012695,-0.011322021,2.250002,28.000004
49152,4,0.5,0.000034332275,2.0000005,-0.14868164,90,90,90,0.000030517578,0.15625,0.14263916,-0.14868164,0.1328125,0.0,2.250004,28.0
49408,4,0.5,0.000030577183,2.0,-0.14868164,90,90,90,0.000030517578,0.1640625,0.14257812,-0.14868164,0.14868164,-0.122070305,2.250061,28.0
49153,4,0.5,0.000030517636,2.0,-0.14868164,90,90,90,0.000030517578,0.15625,0.125,-0.14868164,0.296875,0.0,2.015625,28.0
49152,4,0.5,0.000030517578,2.0,-0.14868164,90,90,90,0.000030517578,0.1640625,0.14257812,-0.14868164,0.29736328,0.061035153,2.000061,28.0
49152,4,0.5,0.000030636904,2.0,-0.14868164,90,90,90,0.000030517578,0.1640625,0.125,-0.14868164,0.3012695,0.0,2.25,28.0
49152,4,0.5,0.000030517578,2.0,-0.011322021,90,90,90,0.000030517578,0.15625,0.140625,-0.011322021,0.13293457,0.011322021,2.25,28.0
49152,4,0.5,0.000034451485,2.0,-0.1484375,90,90,90,0.000030517578,0.1640625,0.12524414,-0.1484375,0.1328125,-0.061035153,2.0,28.0
49216,4,0.5,0.000030517578,2.0,-0.29736328,90,90,90,0.000030517578,0.15625,0.14257812,-0.29736328,0.296875,-0.015258788,2.250061,28.0
49408,4,0.5,0.000030517578,2.0000153,-0.1484375,90,90,90,0.0,0.16455078,0.1430664,-0.1484375,0.1484375,-0.011322021,2.250122,28.0
49152,4,0.5,0.000030517578,2.0000038,-0.009292603,90,90,90,0.0,0.15625,0.14282227,-0.009292603,0.296875,0.061035153,2.25,28.0
49152,4,0.5,0.000030521303,2.0,-0.14868164,90,90,90,0.000030517578,0.1640625,0.125,-0.14868164,0.14868164,-0.011322021,2.0,28.000122
49152,4,0.5,0.000030521303,2.000001,-0.1484375,90,90,90,0.000030517578,0.1640625,0.125,-0.1484375,0.296875,-0.011322021,2.25,28.0
49152,4,0.5,0.000034332275,2.0,-0.14868164,90,90,90,0.000030517578,0.15625,0.14257812,-0.14868164,0.296875,-0.011322021,2.0002441,28.0
49152,4,0.5,0.000030517578,2.0,-0.1484375,90,90,90,0.000030517578,0.1640625,0.125,-0.1484375,0.296875,-0.011322021,2.0,28.0
49152,4,0.50024414,0.000061035396,2.000248,-0.1484375,90,90,90,0.000030517578,0.1640625,0.14257812,-0.1484375,0.296875,-0.011322021,2.0,28.000488
49408,4,0.5,0.000030517578,2.0,-0.14868164,90,90,90,0.000030517578,0.15625,0.125,-0.14868164,0.3662109,-0.061035153,2.0,28.0
49409,4,0.5,0.00003051764,2.0,-0.14868164,90,90,90,0.000030517578,0.1640625,0.125,-0.14868164,0.296875,0.0,2.0,28.007812
49152,4,0.5,0.000030532487,2.0,-0.296875,90,90,90,0.000030517578,0.15625,0.125,-0.296875,0.13293457,0.011322021,2.25,28.0
49152,4,0.5,0.000030517578,2.0,-0.1484375,90,90,90,0.000030517578,0.16436768,0.125,-0.1484375,0.296875,-0.122070305,2.25,28.0
53252,4,0.5,0.00003051851,2.0,-0.1484375,90,90,90,0.000030517578,0.15625,0.140625,-0.1484375,0.29736328,-0.011322021,2.007813,28.0
53280,4,0.5,0.00003051758,2.0002446,-0.1484375,90,90,90,0.000030517578,0.1640625,0.14257812,-0.1484375,0.15063475,0.011322021,2.0,28.007812
53248,4,0.5,0.00003051979,2.0,0.0,90,90,90,0.0,0.1640625,0.125,0.0,0.29736328,-0.061035153,2.2519531,28.0
53248,4,0.5,0.000030517578,2.0,-0.1484375,90,90,90,0.000030517578,0.15625,0.125,-0.1484375,0.29736328,0.0,2.25,28.0
53248,4,0.5,0.000030517578,2.0010529,-0.18115233,90,90,90,0.000030517578,0.1640625,0.14257812,-0.18115233,0.29736328,-0.061035153,2.25,28.000004
53264,4,0.5,0.000030517578,2.0,-0.1328125,90,90,90,0.000030517578,0.1640625,0.14257812,-0.1328125,0.1484375,-0.011322021,2.25,28.0
57344,4,0.5,0.000061035214,2.0,-0.296875,90,90,90,0.000030517578,0.1640625,0.140625,-0.296875,0.14868164,0.0,2.28125,28.0
57344,4,0.5,0.000061035156,2.0,-0.14868164,90,90,90,0.000030517578,0.1640625,0.125,-0.14868164,0.296875,-0.061035153,2.0,28.0
57352,4,0.5,0.000030517578,2.0,-0.18115233,90,90,90,0.000030517578,0.16455078,0.14257812,-0.18115233,0.29736328,0.011322021,2.2500002,28.0
57472,4,0.5004883,0.000030517578,2.0000076,-0.14868164,90,90,90,0.000030517578,0.1640625,0.125,-0.14868164,0.3012695,-0.011322021,2.0000002,28.031311
57344,4,0.5,0.000030517578,2.000002,-0.296875,90,90,90,0.000030517578,0.1640625,0.14257812,-0.296875,0.1484375,-0.011322021,2.0,28.03125
57360,4,0.5,0.00003052503,2.0,-0.009292603,90,90,90,0.000030517578,0.15625,0.14111328,-0.009292603,0.13293457,-0.011322021,2.0009766,28.000977
57344,4,0.5,0.000030517695,2.0,-0.14868164,90,90,90,0.000030517578,0.1640625,0.125,-0.14868164,0.296875,0.0,2.0,28.03125
57472,4,0.5,0.00003052177,2.0012298,-0.29736328,90,90,90,0.000030517578,0.15625,0.125,-0.29736328,0.1328125,0.011322021,2.0,28.0
57344,4,0.5,0.000030517578,2.0,-0.14868164,90,90,90,0.000030517578,0.1640625,0.14257812,-0.14868164,0.296875,0.0,2.2500002,28.0
57344,4,0.5,0.000030517578,2.0,-0.1484375,90,90,90,0.000030517578,0.15625,0.140625,-0.1484375,0.296875,0.0,2.25,28.000977
57345,4,0.5,0.000031471252,2.0,-0.14868164,90,90,90,0.000030517578,0.1640625,0.14257812,-0.14868164,0.296875,-0.061035153,2.015625,28.03125
57472,4,0.5,0.000030517578,2.0000305,-0.296875,90,90,90,0.000030517578,0.15625,0.14257812,-0.296875,0.1484375,-0.011322021,2.0029297,28.000004
0,4,0.5,0.000030517578,2.000122,-0.14868164,90,90,90,0.0,0.1640625,0.14257812,-0.14868164,0.29736328,0.0,2.000122,28.0
0,4,0.5,0.00003054738,2.0009766,-0.14868163,90,90,90,0.000030517578,0.15625,0.125,-0.14868163,0.1328125,0.0,2.2500076,28.03125
128,4,0.5,0.00003051758,2.0,-0.14868164,90,90,90,0.000030517578,0.1640625,0.125,-0.14868164,0.296875,0.0,2.2500153,28.0
0,4,0.5,0.000030532945,2.000001,-0.009292602,90,90,90,0.000030517578,0.15625,0.14282227,-0.009292602,0.296875,-0.122070305,2.0,28.0
0,4,0.5,0.00003051781,2.0,-0.14868164,90,90,90,0.000030517578,0.1640625,0.14257812,-0.14868164,0.3012695,0.0,2.250001,28.000004
2,4,0.5,0.000030518277,2.0,-0.1484375,90,90,90,0.000030517578,0.1640625,0.14257812,-0.1484375,0.296875,-0.061035153,2.03125,28.000488
128,4,0.5,0.000030517578,2.0000002,-0.1484375,90,90,90,0.00048828125,0.15649414,0.140625,-0.1484375,0.1484375,0.022644041,2.0,28.000004
0,4,0.5,0.000030517578,2.0,0.0,90,90,90,0.000030517578,0.15625,0.14257812,0.0,0.25,0.008369445,2.0000005,28.0
0,4,0.5,0.00003051758,2.0,-0.296875,90,90,90,0.000030517578,0.1640625,0.140625,-0.296875,0.296875,-0.011322021,2.2504883,28.0
1,4,0.5,0.000030517578,2.0,-0.009292603,90,90,90,0.000030517578,0.1640625,0.125,-0.009292603,0.14868163,-0.011322021,2.0002441,28.031311
128,4,0.5,0.000030994415,2.0,-0.296875,90,90,90,0.0,0.1640625,0.14257812,-0.296875,0.0,-0.009292603,2.0039062,28.000122
0,4,1.0,0.000030636787,2.0,-0.14868163,90,90,90,0.000030517578,0.1640625,0.125,-0.14868163,0.296875,-0.061035153,2.265625,28.0
0,4,0.5,0.000030517578,2.0,-0.14868164,90,90,90,0.000030517578,0.15625,0.14282227,-0.14868164,0.14868164,0.011322021,2.0000153,28.000122
0,4,0.5,0.000030517578,2.0,-0.018585205,90,90,90,0.000030517578,0.1640625,0.14263916,-0.018585205,0.13293457,0.011322021,2.25,28.000004
0,4,0.5,0.000030636787,2.0000305,-0.14868164,90,90,90,0.000030517578,0.15673828,0.125,-0.14868164,0.29736328,-0.061035153,2.25,28.0
0,4,0.5,0.000030755997,2.0,-0.296875,90,90,90,0.000030517578,0.1640625,0.12524414,-0.296875,0.14868164,-0.011322021,2.0,28.0
0,4,0.5,0.001953125,2.0,-0.1484375,90,90,90,0.00048828125,0.1640625,0.125,-0.1484375,0.1484375,-0.011322021,2.0,28.0
128,4,1.0,0.0019531257,2.0,-0.14868164,90,90,90,0.0,0.1640625,0.14257812,-0.14868164,0.3012695,0.0,2.00391,28.0
0,4,0.5,0.001953125,2.0,-0.14868164,90,90,90,0.000030517578,0.1640625,0.125,-0.14868164,0.29736325,-0.011322021,2.0,28.000977
0,4,0.5,0.001953125,2.000004,-0.14868164,90,90,90,0.000030517578,0.1640625,0.140625,-0.14868164,0.3012695,0.0,2.25,28.000061
0,4,0.5,0.001953125,2.0,-0.14868164,90,90,90,0.000030517578,0.15637207,0.125,-0.14868164,0.29736325,-0.015258788,2.0,28.000551
160,4,0.5,0.0020751953,2.0000076,-0.1328125,90,90,90,0.000030517578,0.1640625,0.125,-0.1328125,0.296875,-0.011322021,2.015625,28.000061
32,4,0.5,0.001953125,2.0000005,-0.14868164,90,90,90,0.000030517578,0.1640625,0.125,-0.14868164,0.296875,-0.061035153,2.25,28.0
8,4,0.5,0.0019533932,2.0000076,-0.14868164,90,90,90,0.000030517578,0.1640625,0.125,-0.14868164,0.296875,-0.061035153,2.0078125,28.007812
1,4,0.5,0.0019683838,2.0009766,-0.009292603,90,90,90,0.000030517578,0.1640625,0.140625,-0.009292603,0.1328125,-0.011322021,2.0161133,28.0
0,4,0.5,0.001960814,2.000002,-0.14868164,90,90,90,0.0,0.1640625,0.14257812,-0.14868164,0.296875,-0.061035153,2.0,28.0
0,4,0.5,0.001953125,2.0,-0.14868164,90,90,90,0.000030517578,0.1640625,0.14282227,-0.14868164,0.296875,-0.011322021,2.0,28.000492
8,4,0.5,0.001953125,2.0,-0.1328125,90,90,90,0.000030517578,0.1640625,0.125,-0.1328125,0.29736328,-0.011322021,2.0,28.0
128,4,0.5,0.0019533634,2.0000076,-0.14868164,90,90,90,0.000030517578,0.1640625,0.14257812,-0.14868164,0.296875,-0.061035153,2.000061,28.0
2,4,0.5,0.001953125,2.000122,-0.1484375,90,90,90,0.000030517578,0.1640625,0.1430664,-0.1484375,0.296875,-0.061035153,2.0,28.03125
0,4,0.5,0.001953125,2.0,-0.14868164,90,90,90,0.000030517578,0.1640625,0.140625,-0.14868164,0.296875,-0.011322021,2.0000305,28.0
0,4,0.5,0.001953125,2.0,-0.14868164,90,90,90,0.00012207031,0.1640625,0.140625,-0.14868164,0.296875,-0.011322021,2.25,28.0
0,4,0.5,0.001953125,2.0,-0.008300781,90,90,90,0.000030517578,0.1640625,0.14257812,-0.008300781,0.296875,-0.011322021,2.25,28.000004
0,4,0.5,0.0004882817,2.0,-0.1328125,90,90,90,0.000030517578,0.1640625,0.140625,-0.1328125,0.29736325,-0.061035153,2.25,28.000004
0,4,0.5,0.000030525145,2.0019531,-0.1328125,90,90,90,0.000030517578,0.1640625,0.125,-0.1328125,0.3012695,0.0,2.03125,28.0
128,4,0.5,0.000030517578,2.0000002,-0.018554688,90,90,90,0.000030517578,0.16412354,0.12597656,-0.018554688,0.296875,-0.061035153,2.250061,28.0
0,4,0.5,0.00006866641,2.0,-0.009292603,90,90,90,0.0,0.1640625,0.14257812,-0.009292603,0.296875,0.0,2.25,28.000004
0,4,0.5,0.000030517578,2.0000305,-0.14868163,90,90,90,0.00048828125,0.1640625,0.125,-0.14868163,0.296875,-0.011322021,2.0314941,28.0
0,4,0.5,0.000030636795,2.0039062,-0.14868164,90,90,90,0.000030517578,0.1640625,0.14257812,-0.14868164,0.296875,-0.061035153,2.031311,28.000488
0,4,0.5,0.00048828125,2.0,-0.14868164,90,90,90,0.00048828125,0.1640625,0.14257812,-0.14868164,0.296875,-0.011322021,2.0000005,28.0
0,4,0.5,0.0004882813,2.0,-0.18115233,90,90,90,0.00048828125,0.16455078,0.14257812,-0.18115233,0.29736328,-0.011322021,2.0000153,28.0
0,4,0.5,0.00048828125,2.0000315,-0.14868164,90,90,90,0.0,0.1640625,0.125,-0.14868164,0.36230466,-0.011322021,2.0000305,28.0
0,4,0.5,0.0004884321,2.0,-0.14868164,90,90,90,0.000030517578,0.1640625,0.14257812,-0.14868164,0.29736328,-0.061035153,2.0000038,28.03125
0,4,0.5,0.00048828125,2.0,-0.1484375,90,90,90,0.0,0.1640625,0.1430664,-0.1484375,0.29736328,-0.061035153,2.0000005,28.0
0,4,0.5,0.0004882813,2.0000305,-0.29736328,90,90,90,0.000030517578,0.16418457,0.14257812,-0.29736328,0.29736328,0.0,2.25,28.0
0,4,0.5,0.00048831117,2.0,-0.14868164,90,90,90,0.0,0.15625,0.12548828,-0.14868164,0.296875,0.0,2.0,28.0
128,4,0.5,0.0019532442,2.000002,-0.14868164,90,90,90,0.000030517578,0.1640625,0.14257812,-0.14868164,0.296875,-0.011322021,2.2500305,28.0
0,4,0.5,0.00048828125,2.0,-0.14868163,90,90,90,0.00048828125,0.1640625,0.125,-0.14868163,0.296875,-0.015258788,2.0,28.0
0,4,0.5,0.00048828183,2.0,-0.14868164,90,90,90,0.000030517578,0.1640625,0.14257812,-0.14868164,0.14868164,0.0,2.000002,28.000244
8,4,0.5,0.0004901886,2.0000157,-0.14868164,90,90,90,0.000030517578,0.1640625,0.125,-0.14868164,0.29736328,-0.011322021,2.007843,28.0
128,4,0.5,0.0019531362,2.0,-0.1484375,90,90,90,0.000030517578,0.1640625,0.14257812,-0.1484375,0.3662109,-0.011322021,2.2500002,28.0
0,4,0.5,0.00048828125,2.0000305,-0.14868164,90,90,90,0.000030517578,0.1640625,0.125,-0.14868164,0.296875,-0.061035153,2.0,28.0
4,4,0.5,0.00048828125,2.0,-0.14868164,90,90,90,0.00048828125,0.1640625,0.14257812,-0.14868164,0.3012695,0.0,2.0,28.000244
0,4,0.5,0.00048828125,2.0,-0.14868164,90,90,90,0.000030517578,0.1640625,0.14257812,-0.14868164,0.29736328,-0.061035153,2.25,28.007816
0,4,0.5,0.00048828125,2.0,-0.14868164,90,90,90,0.00061035156,0.1640625,0.14257812,-0.14868164,0.3662109,-0.061035153,2.0000076,28.0
0,4,0.5,0.00048828137,2.0,-0.14868164,90,90,90,0.000030517578,0.1640625,0.125,-0.14868164,0.3012695,-0.061035153,2.0078125,28.0
16,4,0.5,0.00048828125,2.0,-0.14868164,90,90,90,0.000030517578,0.16467285,0.14318848,-0.14868164,0.296875,0.0,2.25,28.0
16,4,0.5,0.00050354004,2.0,-0.14868164,90,90,90,0.000030517578,0.1640625,0.14257812,-0.14868164,0.29736328,-0.061035153,2.2500076,28.0
0,4,0.5,0.00048828125,2.000122,-0.14868164,90,90,90,0.000030517578,0.1640625,0.14257812,-0.14868164,0.29736328,-0.011322021,2.0000076,28.0
0,4,0.5,0.001953125,2.0,-0.14868164,90,90,90,0.00048828125,0.1640625,0.125,-0.14868164,0.29736328,-0.011322021,2.25,28.001953
0,4,0.5,0.0004882813,2.0,-0.015258788,90,90,90,0.00048828125,0.1640625,0.125,-0.015258788,0.296875,-0.011322021,2.2509766,28.000488
256,4,0.5,0.001953125,2.0,-0.1484375,90,90,90,0.000061035156,0.1640625,0.140625,-0.1484375,0.29736328,0.0,2.0000002,28.000244
0,4,0.5,0.001953125,2.0,-0.1484375,90,90,90,0.00012207031,0.1640625,0.140625,-0.1484375,0.296875,0.0,2.0,28.0
0,4,0.5,0.0019531325,2.0,-0.18115233,90,90,90,0.000030517578,0.16430664,0.140625,-0.18115233,0.3012695,-0.011322021,2.25,28.0
0,4,0.5,0.0020141602,2.0,-0.009292603,90,90,90,0.00048828125,0.1640625,0.14257812,-0.009292603,0.296875,-0.011322021,2.0,28.00879
0,4,0.5,0.0019683838,2.0,-0.1484375,90,90,90,0.000030517578,0.16430664,0.125,-0.1484375,0.29736328,-0.122070305,2.2500038,28.0
0,4,0.5,0.000030517578,2.0,-0.009292603,90,90,90,0.00048828125,0.1640625,0.125,-0.009292603,0.29736328,0.0,2.25,28.000063
0,4,0.5,0.001953155,2.0,-0.14868163,90,90,90,0.00048828125,0.1640625,0.14111328,-0.14868163,0.3012695,-0.061035153,2.0000305,28.0
256,4,0.5,0.000030517593,2.0000076,-0.18115233,90,90,90,0.000030517578,0.16418457,0.140625,-0.18115233,0.3012695,0.0,2.2500153,28.0
0,4,0.5,0.000030517578,2.0,-0.14868163,90,90,90,0.000030517578,0.1640625,0.140625,-0.14868163,0.296875,-0.011322021,2.0039062,28.0
0,4,0.5,0.000030517578,2.000122,-0.14868164,90,90,90,0.00048828125,0.1640625,0.140625,-0.14868164,0.3012695,-0.011322021,2.250019,28.000488
0,4,0.5,0.000030517578,2.0,-0.296875,90,90,90,0.000030517578,0.1640625,0.14111328,-0.296875,0.3012695,-0.011322021,2.0000172,28.0
0,4,0.5,0.000030517578,2.0,-0.18115233,90,90,90,0.00048828125,0.16430664,0.125,-0.18115233,0.3012695,-0.061035153,2.0,28.0
0,4,0.5,0.000030517578,2.0019836,-0.1484375,90,90,90,0.000030517578,0.1640625,0.140625,-0.1484375,0.29736328,-0.011322021,2.015625,28.0
0,4,0.5,0.000045776367,2.0019534,-0.14868164,90,90,90,0.00048828125,0.1640625,0.14257812,-0.14868164,0.29736328,-0.061035153,2.25,28.0
64,4,0.5,0.000030517578,2.000061,-0.14868164,90,90,90,0.00048828125,0.1640625,0.14257812,-0.14868164,0.29736328,-0.061035153,2.0,28.0
8,4,0.5,0.000030517578,2.0000312,-0.13305664,90,90,90,0.00048828125,0.1640625,0.14257812,-0.13305664,0.3012695,0.0,2.25,28.000004
64,4,0.5,0.000030517578,2.0,-0.14868164,90,90,90,0.0,0.1640625,0.140625,-0.14868164,0.296875,-0.011322021,2.25,28.0
0,4,0.5,0.000030636846,2.000063,-0.14868164,90,90,90,0.00048828125,0.1640625,0.125,-0.14868164,0.29736328,0.0,2.25,28.0
8,4,0.5,0.00003245473,2.0,-0.14868164,90,90,90,0.0,0.1640625,0.140625,-0.14868164,0.29736328,-0.011322021,2.0039062,28.0
2,4,0.5,4.656613e-10,2.0000002,-0.14868164,90,90,90,0.000030517578,0.1640625,0.140625,-0.14868164,0.3012695,-0.061035153,2.0,28.0
0,4,0.5,0.000030636787,2.0,-0.14868164,90,90,90,0.000030517578,0.1640625,0.125,-0.14868164,0.3012695,-0.011322021,2.0,28.03125
0,4,0.5,0.000030517578,2.0,-0.14868164,90,90,90,0.00048828125,0.15625,0.125,-0.14868164,0.3012695,-0.011322021,2.25,28.0
0,4,0.5,0.000030517578,2.0,-0.14868164,90,90,90,0.000030517578,0.16418457,0.125,-0.14868164,0.296875,-0.061035153,2.0,28.0
64,4,0.5,0.00003051758,2.0,-0.1484375,90,90,90,0.000030517578,0.1640625,0.14257812,-0.1484375,0.296875,-0.011322021,2.0,28.000061
0,4,0.5,0.000030517578,2.0,-0.14868164,90,90,90,0.000030517578,0.1640625,0.14257812,-0.14868164,0.29736328,-0.122070305,2.25,28.0
0,4,0.5,0.00006484985,2.0,-0.14868164,90,90,90,0.000030517578,0.1640625,0.140625,-0.14868164,0.1484375,-0.011322021,2.0009766,28.0
1,4,0.5,0.000030517585,2.0000002,0.0,90,90,90,0.00048828125,0.1640625,0.125,0.0,0.296875,0.0,2.0,28.0
10,4,1.0,0.000030517578,2.0002441,-0.14868164,90,90,90,0.00048828125,0.1640625,0.125,-0.14868164,0.3012695,-0.011322021,2.03125,28.0
32,4,1.0,0.00003053248,2.0004883,-0.14868164,90,90,90,0.00048828125,0.15625,0.14111328,-0.14868164,0.296875,-0.122070305,2.2504883,28.0
0,4,0.5,0.000030517578,2.0,-0.296875,90,90,90,0.0,0.1640625,0.1430664,-0.296875,0.296875,-0.011322021,2.0,28.0
0,4,0.5,0.00003075623,2.0004883,-0.296875,90,90,90,0.000030517578,0.15625,0.1430664,-0.296875,0.29736328,-0.011322021,2.0,28.000977
128,4,0.5,0.000030521303,2.0,-0.14868164,90,90,90,0.0,0.1640625,0.125,-0.14868164,0.29736328,-0.011322021,2.0,28.0
0,4,0.5,0.000030517578,2.0,-0.14868164,90,90,90,0.00048828125,0.15625,0.14257812,-0.14868164,0.29736328,-0.011322021,2.0078125,28.0
2,4,0.5,0.000030517578,2.0,-0.18115233,90,90,90,0.00048828125,0.1640625,0.125,-0.18115233,0.18115233,-0.061035153,2.25,28.0
8,4,0.5,0.000030521303,2.000061,-0.29736328,90,90,90,0.000030517578,0.15625,0.12506104,-0.29736328,0.3012695,-0.011322021,2.000001,28.0
0,4,0.5,0.000030517578,2.000123,-0.14868164,90,90,90,0.000030517578,0.1640625,0.14257812,-0.14868164,0.3012695,-0.011322021,2.0078163,28.0
0,4,0.5,0.000030994415,2.0,-0.1484375,90,90,90,0.000030517578,0.1640625,0.14257812,-0.1484375,0.296875,-0.011322021,2.25,28.0
4096,4,0.5,0.00003051851,2.0000153,-0.1484375,90,90,90,0.00048828125,0.1640625,0.14257812,-0.1484375,0.18115233,-0.011322021,2.0000038,28.0
4224,4,0.5,0.000030517578,2.000061,-0.14868164,90,90,90,0.000030517578,0.1640625,0.14257812,-0.14868164,0.29736328,-0.061035153,2.015627,28.0
4096,4,0.5,0.000030517578,2.0,-0.1484375,90,90,90,0.000030517578,0.16418457,0.14257812,-0.1484375,0.296875,-0.122070305,2.000061,28.0
4096,4,0.5,0.000061035156,2.0,-0.14868164,90,90,90,0.000030517578,0.1640625,0.14257812,-0.14868164,0.14868164,-0.011322021,2.000246,28.0
4096,4,0.5,0.000030517578,2.0,-0.14868164,90,90,90,0.00048828125,0.1640625,0.1430664,-0.14868164,0.296875,-0.122070305,2.000002,28.0
4224,4,0.5,0.00003051758,2.0,-0.14868164,90,90,90,0.000030517578,0.15625,0.14257812,-0.14868164,0.29736328,-0.061035153,2.0,28.0
4096,4,0.5,0.000030521303,2.0,-0.14868164,90,90,90,0.000030517578,0.1640625,0.125,-0.14868164,0.3012695,-0.011322021,2.25,28.0
4096,4,0.5,0.000030517578,2.0,-0.1328125,90,90,90,0.000030517578,0.1640625,0.125,-0.1328125,0.296875,-0.011322021,2.0,28.0
4224,4,0.5,0.000030517695,2.0,-0.296875,90,90,90,0.00048828125,0.1640625,0.125,-0.296875,0.29736328,-0.011322021,2.0,28.0
65536,4,0.5,0.000030517593,2.0,-0.14868164,90,90,90,0.000030517578,0.1640625,0.140625,-0.14868164,0.296875,-0.011322021,2.0009766,28.0
65536,4,0.5,0.000030518044,2.0,-0.296875,90,90,90,0.0,0.1640625,0.125,-0.296875,0.29736328,-0.011322021,2.000002,28.007812
65540,4,0.5,0.000061035156,2.0,-0.009292603,90,90,90,0.000030517578,0.1640625,0.14257812,-0.009292603,0.296875,-0.011322021,2.0,28.0
65664,4,0.5,0.000030517578,2.0000153,-0.14868164,90,90,90,0.0,0.1640625,0.14257812,-0.14868164,0.3662109,-0.061035153,2.0,28.0
65536,4,0.5,0.000030994415,2.0000005,-0.29736328,90,90,90,0.00048828125,0.1640625,0.140625,-0.29736328,0.29736328,-0.061035153,2.25,28.0
65552,4,0.5,4.6588866e-10,2.0,-0.14868164,90,90,90,0.000030517578,0.1640625,0.125,-0.14868164,0.3012695,-0.061035153,2.0,28.0
65536,4,0.5,0.000030517578,2.0039062,-0.1484375,90,90,90,0.00048828125,0.1640625,0.125,-0.1484375,0.296875,-0.011322021,2.0,28.000061
65728,4,0.5,0.000030521318,2.0,-0.14868164,90,90,90,0.000030517578,0.15625,0.14257812,-0.14868164,0.296875,-0.011322021,2.2504883,28.0
65536,4,0.5,0.000030517578,2.0,-0.29736328,90,90,90,0.000030517578,0.1640625,0.14257812,-0.29736328,0.29736328,-0.061035153,2.25,28.000002
65536,4,0.5,0.000030517636,2.0,-0.14868164,90,90,90,0.000030517578,0.1640625,0.14257812,-0.14868164,0.296875,-0.011322021,2.25,28.0
65664,4,0.5,0.000030517578,2.0,-0.14868164,90,90,90,0.000030517578,0.1640625,0.14257812,-0.14868164,0.3662109,-0.011322021,2.031372,28.0
65536,4,0.5,0.00003051771,2.0039062,-0.14868164,90,90,90,0.00048828125,0.1640625,0.125,-0.14868164,0.29736328,-0.011322021,2.000246,28.007812
65536,4,0.5,0.000030517578,2.0039062,-0.29736328,90,90,90,0.0,0.15625,0.14257812,-0.29736328,0.296875,-0.011322021,2.0,28.0
65536,4,0.5,0.000030517578,2.0039062,-0.29736328,90,90,90,0.000030517578,0.1640625,0.14257812,-0.29736328,0.296875,-0.011322021,2.2500038,28.0
65664,4,0.5,0.000030517578,2.0039215,-0.14868164,90,90,90,0.00048828125,0.16418457,0.14257812,-0.14868164,0.296875,-0.061035153,2.0000079,28.0
65536,4,0.5,0.00003051944,2.0039158,-0.1484375,90,90,90,0.000030517578,0.1640625,0.14257812,-0.1484375,0.296875,-0.061035153,2.2500002,28.0
65544,4,0.5,0.000030517578,2.0039062,-0.1484375,90,90,90,0.000030517578,0.1640625,0.125,-0.1484375,0.3012695,-0.011322021,2.0,28.0
65536,4,0.5,0.000030519444,2.0039062,-0.14868164,90,90,90,0.00048828125,0.1640625,0.1430664,-0.14868164,0.29736328,-0.011322021,2.000002,28.0
65536,4,0.5,0.000030517607,2.0040436,-0.14868164,90,90,90,0.000061035156,0.1640625,0.14257812,-0.14868164,0.29736328,-0.011322021,2.2519531,28.000488
65536,4,0.5,0.00003053248,2.0,-0.14868164,90,90,90,0.00048828125,0.1640625,0.1430664,-0.14868164,0.296875,-0.011322021,2.0,28.0
65536,4,0.5,0.00006151205,2.0,-0.14868164,90,90,90,0.00048828125,0.15625,0.14263916,-0.14868164,0.3012695,-0.061035153,2.0,28.000488
65536,4,0.5,0.000030599535,2.0,-0.1328125,90,90,90,0.000030517578,0.1640625,0.125,-0.1328125,0.3662109,-0.011322021,2.0,28.0
65536,4,0.5001221,0.000061035214,2.0,-0.14868164,90,90,90,0.000030517578,0.1640625,0.125,-0.14868164,0.3012695,-0.011322021,2.0039072,28.0
65536,4,0.5001221,0.00003051758,2.0,-0.14868164,90,90,90,0.00048828125,0.16503906,0.14257812,-0.14868164,0.3012695,-0.011322021,2.25,28.0
65537,4,0.5004883,0.000030517578,2.0,-0.14868164,90,90,90,0.000030517578,0.1640625,0.1430664,-0.14868164,0.3662109,-0.011322021,2.0,28.0
65536,4,0.5,0.000061273575,2.0,-0.1484375,90,90,90,0.00048828125,0.1640625,0.14257812,-0.1484375,0.29736328,-0.011322021,2.250001,28.0
65536,4,0.5,0.000030994415,2.0000002,-0.29736328,90,90,90,0.000030517578,0.16455078,0.14318848,-0.29736328,0.296875,-0.011322021,2.0000002,28.0
65536,4,0.5,0.000061035156,2.0000005,-0.14868164,90,90,90,0.0009765625,0.1640625,0.14257812,-0.14868164,0.296875,-0.061035153,2.0,28.0
65536,4,0.5,0.000031471252,2.000061,-0.14868164,90,90,90,0.000030517578,0.1640625,0.125,-0.14868164,0.296875,-0.011322021,2.2509766,28.0
65536,4,0.5,0.000030517578,2.0,-0.14868163,90,90,90,0.000030517578,0.1640625,0.14257812,-0.14868163,0.3012695,-0.061035153,2.2500916,28.000488
65540,4,0.5,0.000030517578,2.0039062,-0.30517578,90,90,90,0.0,0.1640625,0.14257812,-0.30517578,0.296875,-0.061035153,2.25,28.000488
65536,4,0.50024414,0.000030517578,2.0,-0.14868164,90,90,90,0.00048828125,0.1640625,0.125,-0.14868164,0.296875,-0.061035153,2.25,28.000488
65536,4,0.5,0.000030517578,2.0,-0.14868164,90,90,90,0.00048828125,0.1640625,0.140625,-0.14868164,0.296875,-0.011322021,2.25,28.0
65536,4,0.5,0.000030517578,2.000122,-0.29736328,90,90,90,0.000030517578,0.1640625,0.14257812,-0.29736328,0.296875,-0.011322021,2.25,28.0
65536,4,0.5,0.000030517578,2.0,-0.1484375,90,90,90,0.00048828125,0.1640625,0.125,-0.1484375,0.296875,-0.015258788,2.0,28.0
65536,4,0.5,0.000030517578,2.0,-0.14868164,90,90,90,0.00048828125,0.1640625,0.125,-0.14868164,0.29736328,-0.122070305,2.0,28.0
65552,4,0.5,0.00003248453,2.0009766,-0.14868164,90,90,90,0.000030517578,0.1640625,0.125,-0.14868164,0.296875,-0.011322021,2.0,28.0
65536,4,0.5,0.000030517578,2.000019,-0.29736328,90,90,90,0.000030517578,0.16455078,0.14257812,-0.29736328,0.29736328,-0.011322021,2.25,28.0
65536,4,0.5,0.00003439188,2.0,-0.29736328,90,90,90,0.000030517578,0.1640625,0.140625,-0.29736328,0.29736328,-0.011322021,2.25,28.0
65536,4,0.5,0.000032424927,2.0,-0.14868164,90,90,90,0.0,0.15625,0.14257812,-0.14868164,0.29736328,-0.011322021,2.2500038,28.0
65536,4,0.5,0.000030517578,2.0000153,-0.14868164,90,90,90,0.00048828125,0.1640625,0.140625,-0.14868164,0.29736328,-0.011322021,2.0,28.0
65666,4,0.5,0.000031530857,2.0,-0.14868164,90,90,90,0.00048828125,0.1640625,0.14257812,-0.14868164,0.296875,-0.015258788,2.0,28.0
65536,4,0.5,0.000030577183,2.0,-0.18115233,90,90,90,0.000030517578,0.16418457,0.14257812,-0.18115233,0.29736328,-0.011322021,2.2548847,28.0
65536,4,0.5,0.00003066659,2.0024414,-0.29736328,90,90,90,0.000030517578,0.1640625,0.14257812,-0.29736328,0.14868164,-0.061035153,2.25,28.0
65538,4,0.5001221,0.000038146973,2.0019531,-0.14868164,90,90,90,0.000030517578,0.1640625,0.125,-0.14868164,0.3012695,-0.011322021,2.25,28.0
65668,4,0.5,0.000032425047,2.0019531,-0.296875,90,90,90,0.00012207031,0.1640625,0.1430664,-0.296875,0.29736328,-0.011322021,2.0,28.000122
65536,4,0.5,0.000030517578,2.0,-0.14868164,90,90,90,0.00048828125,0.1640625,0.14111328,-0.14868164,0.296875,-0.011322021,2.25,28.0
65536,4,0.5,0.000030636787,2.0,-0.14868164,90,90,90,0.000030517578,0.1640625,0.14282227,-0.14868164,0.296875,-0.011322021,2.0078125,28.0
65536,4,1.0,0.000030994415,2.0019531,-0.14868164,90,90,90,0.000030517578,0.1640625,0.14257812,-0.14868164,0.29736328,-0.011322021,2.0,28.0
65536,4,0.5,0.000030517578,2.0019536,-0.14868164,90,90,90,0.000030517578,0.1640625,0.1430664,-0.14868164,0.29736328,0.0,2.000122,28.0
65536,4,0.5004883,0.000031471252,2.0,-0.1484375,90,90,90,0.000030517578,0.1640625,0.125,-0.1484375,0.29736328,-0.011322021,2.0039062,28.000488
65536,4,0.5,0.00003051851,2.0,-0.14868164,90,90,90,0.0,0.1640625,0.14282227,-0.14868164,0.29736325,0.0,2.0,28.0
65664,4,0.5,0.000030517578,2.0,-0.14868164,90,90,90,0.000030517578,0.1640625,0.125,-0.14868164,0.3012695,-0.011322021,2.0,28.00879
65536,4,1.0,0.000030517578,2.0019608,-0.14868164,90,90,90,0.000030517578,0.1640625,0.125,-0.14868164,0.296875,-0.011322021,2.25,28.0
65536,4,0.5,0.00003051851,2.0019531,-0.14868164,90,90,90,0.000030517578,0.1640625,0.14257812,-0.14868164,0.296875,-0.011322021,2.0019531,28.000004
65536,4,0.5,0.000030517593,2.0,-0.1484375,90,90,90,0.00048828125,0.15625,0.140625,-0.1484375,0.29736328,-0.011322021,2.0009918,28.0
65664,4,0.5,0.000030517578,2.0,-0.14868164,90,90,90,0.000030517578,0.1640625,0.125,-0.14868164,0.14868163,-0.122070305,2.0,28.0
65536,4,0.5,0.000030517578,2.0,-0.14868164,90,90,90,0.000030517578,0.1640625,0.14263916,-0.14868164,0.29736328,-0.011322021,2.0,28.0
65544,4,0.5,0.000030517578,2.0,-0.14868164,90,90,90,0.000030517578,0.1640625,0.125,-0.14868164,0.29736328,-0.011322021,2.0039062,28.03125
65536,4,0.5,0.000030517578,2.0000005,-0.14868164,90,90,90,0.000030517578,0.1640625,0.14257812,-0.14868164,0.296875,-0.122070305,2.25,28.0
65536,4,0.50024414,0.000030517578,2.0,-0.29736328,90,90,90,0.00048828125,0.16418457,0.140625,-0.29736328,0.296875,-0.061035153,2.0,28.0
65536,4,1.0,0.000030518044,2.0,-0.14868164,90,90,90,0.000030517578,0.1640625,0.14074707,-0.14868164,0.296875,-0.011322021,2.0,28.000492
65536,4,0.5,0.000030517578,2.0,-0.14868164,90,90,90,0.00048828125,0.1640625,0.140625,-0.14868164,0.29736328,-0.061035153,2.2500024,28.0
65664,4,0.5,9.314363e-10,2.000001,-0.14868164,90,90,90,0.000030517578,0.1640625,0.14257812,-0.14868164,0.14868164,-0.061035153,2.250061,28.0
65536,4,0.5,0.000030517578,2.000002,-0.14868164,90,90,90,0.000030517578,0.1640625,0.14257812,-0.14868164,0.296875,-0.011322021,2.0000038,28.0
65536,4,0.5001221,0.000030517578,2.000001,-0.1484375,90,90,90,0.00012207031,0.1640625,0.14257812,-0.1484375,0.29736328,-0.015258788,2.0,28.000492
65536,4,0.5,0.000030517578,2.0009766,-0.1484375,90,90,90,0.00048828125,0.16455078,0.125,-0.1484375,0.29736328,-0.061035153,2.25,28.0
65664,4,0.5,0.000030517593,2.0,-0.29736328,90,90,90,0.00048828125,0.1640625,0.14257812,-0.29736328,0.29736328,-0.011322021,2.0,28.000122
65536,4,0.5,0.00003051851,2.0000024,-0.14868164,90,90,90,0.00048828125,0.1640625,0.125,-0.14868164,0.296875,-0.011322021,2.0,28.000061
65536,4,0.5,0.000030994415,2.0,-0.14868164,90,90,90,0.00048828125,0.1640625,0.14257812,-0.14868164,0.1484375,-0.011322021,2.0,28.0
65536,4,0.5,0.00006103517,2.0,-0.14868164,90,90,90,0.000030517578,0.16455078,0.125,-0.14868164,0.296875,-0.122070305,2.25,28.0
65536,4,0.5004883,0.000030517578,2.0,-0.14868164,90,90,90,0.000061035156,0.1640625,0.14257812,-0.14868164,0.296875,-0.011322021,2.03125,28.03125
65536,4,0.5,0.000030636787,2.0,-0.14868164,90,90,90,0.00048828125,0.1640625,0.125,-0.14868164,0.296875,-0.122070305,2.25,28.0
65536,4,0.5,0.000045776367,2.0000005,-0.14868164,90,90,90,0.000030517578,0.1640625,0.14257812,-0.14868164,0.3012695,-0.011322021,2.25,28.0
65664,4,0.5,0.000030517578,2.0000153,-0.14868164,90,90,90,0.000030517578,0.1640625,0.125,-0.14868164,0.296875,-0.011322021,2.0,28.0
65536,4,1.0,0.000030517578,2.0,-0.14868163,90,90,90,0.000030517578,0.16430664,0.125,-0.14868163,0.296875,-0.061035153,2.0000038,28.0
65536,4,0.5,0.000038146973,2.0009766,-0.14868164,90,90,90,0.000030517578,0.16418457,0.14257812,-0.14868164,0.3662109,-0.011322021,2.0000005,28.0
65536,4,0.5,0.000030517578,2.0,-0.1484375,90,90,90,0.000030517578,0.1640625,0.12512207,-0.1484375,0.29736328,-0.061035153,2.25,28.03125
65664,4,0.5,0.000045776367,2.000001,-0.14868164,90,90,90,0.000030517578,0.16455078,0.14257812,-0.14868164,0.29736328,-0.061035153,2.0,28.0
65536,4,0.5,0.000030517578,2.001587,-0.14868164,90,90,90,0.000030517578,0.1640625,0.125,-0.14868164,0.296875,-0.011322021,2.0312502,28.0
65536,4,0.5,0.00003053248,2.0002441,-0.14868164,90,90,90,0.0,0.16430664,0.140625,-0.14868164,0.29736328,-0.011322021,2.0,28.0
65536,4,0.5,0.00003054738,2.0000076,-0.14868164,90,90,90,0.00048828125,0.1640625,0.125,-0.14868164,0.296875,-0.011322021,2.25,28.0
65808,4,0.5,0.000030517578,2.0,-0.009292603,90,90,90,0.00048828125,0.1640625,0.140625,-0.009292603,0.29736328,-0.011322021,2.000002,28.0
65568,4,0.5,0.000030577183,2.0,-0.009292603,90,90,90,0.000030517578,0.1640625,0.125,-0.009292603,0.3012695,-0.011322021,2.0000038,28.0
65538,4,0.5004883,0.000038146973,2.0,-0.1484375,90,90,90,0.000030517578,0.16412354,0.140625,-0.1484375,0.29736328,-0.011322021,2.015625,28.000488
65664,4,0.5,0.000030517578,2.0000763,-0.14868164,90,90,90,0.00048828125,0.1640625,0.12506104,-0.14868164,0.29736328,0.0,2.2504892,28.000122
65537,4,0.5,0.000030517578,2.0004902,-0.296875,90,90,90,0.0,0.1640625,0.125,-0.296875,0.3012695,-0.011322021,2.250061,28.0
65544,4,0.5,0.000030517578,2.0,-0.1484375,90,90,90,0.000030517578,0.15625,0.125,-0.1484375,0.296875,-0.061035153,2.25,28.0
65536,4,0.5,0.00003056228,2.000122,-0.14868164,90,90,90,0.000030517578,0.1640625,0.140625,-0.14868164,0.29736328,-0.011322021,2.2539065,28.0
65664,4,0.5,0.00003051781,2.0,-0.009292603,90,90,90,0.00048828125,0.1640625,0.14135742,-0.009292603,0.296875,-0.011322021,2.000122,28.000244
65536,4,0.5,0.000030517578,2.0,-0.14868164,90,90,90,0.00048828125,0.16418457,0.14257812,-0.14868164,0.296875,-0.011322021,2.0000002,28.0
65536,4,0.5,0.00003242494,2.0,-0.14868164,90,90,90,0.000030517578,0.1640625,0.1427002,-0.14868164,0.29736328,-0.011322021,2.0080566,28.0
65536,4,1.0,0.000030517578,2.0,-0.1484375,90,90,90,0.000030517578,0.1640625,0.125,-0.1484375,0.296875,-0.061035153,2.25,28.0
65536,4,0.5,0.000030517578,2.0,-0.14868164,90,90,90,0.000030517578,0.16418457,0.14257812,-0.14868164,0.3012695,-0.011322021,2.0,28.0
65536,4,0.5,0.000030517578,2.0005188,-0.1484375,90,90,90,0.000030517578,0.1640625,0.125,-0.1484375,0.3012695,-0.011322021,2.25,28.0
